subj;trial;block;prior;kappa;ct;delay;fix;keypressed;R;T_Angle;resp_mod;choice_x;choice_y;init_resp_angle;choiceAngle;choiceR;RT;MT;ts_b;ts_f;ts_p;ts_d;ts_r;ts_e;m_pos_x;m_pos_y;m_clock
testa;0;0;0;1;False;1000;True;;8;-38.81547232450414;drag;L;4.762246;-4.932326;-46.01;6.86;1.4988528999965638;1.498981500044465;1684835841.3206422;1684835841.339621;1684835842.0935447;1684835842.5961561;1684835843.5763648;1684835845.0758433;[0.0, 0.0, 0.0, 0.0, 0.0, 0.0, 0.0, 0.0, 0.0, 0.0, 0.0, 0.0, 0.0, 0.0, 0.0, 0.0, 0.0, 0.0, 0.0, 0.0, 0.0, 0.0, 0.0, 0.0, 0.0, 0.0, 0.0, 0.0, 0.0, 0.0, 0.0, 0.0, 0.0, 0.0, 0.0, 0.0, 0.0, 0.9070944, 1.3039483, 1.5874153, 1.899229, 2.1260026, 2.381123, 2.5228565, 2.66459, 2.7779768, 2.83467, 2.9197102, 3.0897903, 3.2315238, 3.4582977, 3.7417645, 4.110272, 4.252005, 4.337045, 4.422086, 4.4504323, 4.5071254, 4.5071254, 4.5354724, 4.5354724, 4.5354724, 4.563819, 4.563819, 4.5921655, 4.620512, 4.648859, 4.6772056, 4.6772056, 4.7055526, 4.733899, 4.733899, 4.762246, 4.762246, 4.762246, 4.762246, 4.762246, 4.762246, 4.762246, 4.762246, 4.762246, 4.762246, 4.762246, 4.762246, 4.762246, 4.762246, 4.762246, 4.762246, 4.762246];[0.0, 0.0, 0.0, 0.0, 0.0, 0.0, 0.0, 0.0, 0.0, 0.0, 0.0, 0.0, 0.0, 0.0, 0.0, 0.0, 0.0, 0.0, 0.0, 0.0, 0.0, 0.0, 0.0, 0.0, 0.0, 0.0, 0.0, 0.0, 0.0, 0.0, 0.0, 0.0, 0.0, 0.0, 0.0, 0.0, 0.0, -0.96378785, -1.3606416, -1.6157619, -1.9559225, -2.211043, -2.6078966, -2.8913634, -3.2315238, -3.4299507, -3.6000311, -3.7417645, -3.968538, -4.110272, -4.3086987, -4.5071254, -4.733899, -4.847286, -4.9039793, -4.9039793, -4.932326, -4.960673, -4.9890194, -4.9890194, -4.9890194, -4.9890194, -4.9890194, -4.9890194, -4.9890194, -4.9890194, -4.9890194, -4.9890194, -4.9890194, -4.9890194, -4.9890194, -4.9890194, -4.9890194, -4.9890194, -4.960673, -4.960673, -4.960673, -4.960673, -4.932326, -4.932326, -4.932326, -4.932326, -4.932326, -4.932326, -4.932326, -4.932326, -4.932326, -4.932326, -4.932326];[0.00857720011845231, 0.032131200190633535, 0.053272300167009234, 0.06778650009073317, 0.08549139997921884, 0.10197640000842512, 0.11937970016151667, 0.13538280013017356, 0.1527957001235336, 0.16762820002622902, 0.18439280008897185, 0.2009284000378102, 0.21958600007928908, 0.23439670004881918, 0.2538311001844704, 0.26786170015111566, 0.2864878000691533, 0.3012576000764966, 0.31883010012097657, 0.3353726000059396, 0.3528049001470208, 0.36769420001655817, 0.38599890004843473, 0.4018828000407666, 0.41976870014332235, 0.4343851001467556, 0.4532243001740426, 0.46794610004872084, 0.48636150010861456, 0.5015295001212507, 0.5195049000903964, 0.5345858000218868, 0.5530148001853377, 0.5681041001807898, 0.5853520999662578, 0.601328199962154, 0.6195450001396239, 0.6352683000732213, 0.651126200100407, 0.6689098000060767, 0.6859999999869615, 0.7027408999856561, 0.7224121000617743, 0.7343109999783337, 0.7549595001619309, 0.7679502000100911, 0.7854743001516908, 0.8014049001503736, 0.8183039000723511, 0.8340501000639051, 0.8523803001735359, 0.8671409001108259, 0.8875997001305223, 0.9006429000291973, 0.9173679000232369, 0.9343328999821097, 0.9510249001905322, 0.9672499999869615, 0.9863446999806911, 1.00057140015997, 1.0192013999912888, 1.034433500142768, 1.0535252999980003, 1.0692451000213623, 1.085189800010994, 1.1022978001274168, 1.119207400130108, 1.134347700048238, 1.153254000004381, 1.1670391000807285, 1.1842722999863327, 1.2018387001007795, 1.2190440001431853, 1.234766700072214, 1.2529796999879181, 1.2673711001407355, 1.286373200127855, 1.301299300044775, 1.3213027000892907, 1.3338661000598222, 1.3529270000290126, 1.3679925999604166, 1.3855024001095444, 1.4015754000283778, 1.4199101000558585, 1.4346897001378238, 1.4547631000168622, 1.470002799993381, 1.4843332001473755]
testa;1;0;0;1;False;3000;True;;8;-50.41649285350856;drag;L;4.5354724;-5.2441397;-49.14;6.93;1.4484000999946147;1.448500300059095;1684835846.007016;1684835846.0222368;1684835846.775957;1684835847.276693;1684835850.2787542;1684835851.7272267;[0.0, 0.0, 0.0, 0.0, 0.0, 0.0, 0.0, 0.0, 0.0, 0.0, 0.0, 0.0, 0.0, 0.0, 0.0, 0.0, 0.0, 0.0, 0.0, 0.0, 0.0, 0.0, 0.0, 0.0, 0.0, 0.0, 0.0, 0.0, 1.1055214, 1.5023751, 1.8425356, 1.9559225, 2.1543493, 2.2960827, 2.4378164, 2.6078966, 2.6362433, 2.7212832, 2.7496302, 2.8063235, 2.9197102, 3.0047503, 3.1181371, 3.1748307, 3.2315238, 3.2882173, 3.316564, 3.316564, 3.4016042, 3.4299507, 3.6000311, 3.7417645, 3.798458, 3.8551514, 3.9401915, 4.025232, 4.1953115, 4.252005, 4.337045, 4.365392, 4.3937387, 4.4504323, 4.4504323, 4.478779, 4.5071254, 4.5071254, 4.5071254, 4.5354724, 4.5354724, 4.5354724, 4.5354724, 4.5354724, 4.5354724, 4.5354724, 4.5354724, 4.5354724, 4.5354724, 4.5354724, 4.5354724, 4.5354724, 4.5354724, 4.5354724, 4.5354724, 4.5354724, 4.5354724, 4.5354724];[0.0, 0.0, 0.0, 0.0, 0.0, 0.0, 0.0, 0.0, 0.0, 0.0, 0.0, 0.0, 0.0, 0.0, 0.0, 0.0, 0.0, 0.0, 0.0, 0.0, 0.0, 0.0, 0.0, 0.0, 0.0, 0.0, 0.0, 0.0, -1.417335, -1.899229, -2.2960827, -2.4378164, -2.66459, -2.8913634, -3.1181371, -3.4866443, -3.6000311, -3.7417645, -3.8834982, -3.996885, -4.2803516, -4.422086, -4.5921655, -4.6772056, -4.7905927, -4.818939, -4.847286, -4.9039793, -4.932326, -4.960673, -5.045713, -5.1024065, -5.130753, -5.1874466, -5.215793, -5.2724867, -5.32918, -5.3575263, -5.3858733, -5.41422, -5.41422, -5.41422, -5.41422, -5.41422, -5.3575263, -5.3575263, -5.32918, -5.300833, -5.2724867, -5.2441397, -5.2441397, -5.2441397, -5.2441397, -5.2441397, -5.2441397, -5.2441397, -5.2441397, -5.2441397, -5.2441397, -5.2441397, -5.2441397, -5.2441397, -5.2441397, -5.2441397, -5.2441397, -5.2441397];[0.005524300038814545, 0.030592799885198474, 0.051628499990329146, 0.06646879995241761, 0.0841379000339657, 0.09979949984699488, 0.11836089985445142, 0.13231069990433753, 0.15066519984975457, 0.16618909989483654, 0.18596210004761815, 0.19861479988321662, 0.21661669993773103, 0.23327129986137152, 0.25124070001766086, 0.26584320003166795, 0.2842466998845339, 0.3003117998596281, 0.31629769993014634, 0.3329526998568326, 0.35084019997157156, 0.36575939995236695, 0.38508299994282424, 0.3986962998751551, 0.417923100059852, 0.4314236999489367, 0.4512511999346316, 0.466414500027895, 0.48372039990499616, 0.5002478000242263, 0.5165313000325114, 0.5328736999072134, 0.5522302999161184, 0.5653848999645561, 0.5845158000010997, 0.601920000044629, 0.6159844000358135, 0.6332546998746693, 0.6510081999003887, 0.6651991000398993, 0.6853938000276685, 0.6993507998995483, 0.7165669000241905, 0.7328025000169873, 0.749648500001058, 0.7660012999549508, 0.7836354000028223, 0.7976136000361294, 0.818653600057587, 0.8315214000176638, 0.8493113999720663, 0.8671267998870462, 0.8824672000482678, 0.9006268000230193, 0.9191113000269979, 0.931162100052461, 0.9519549999386072, 0.9661003998480737, 0.9849515999667346, 1.0010885999072343, 1.0170783000066876, 1.0364109999500215, 1.0494697999674827, 1.06559729995206, 1.086571899941191, 1.0991376000456512, 1.1177772998344153, 1.132056999951601, 1.1504565000068396, 1.1660736000631005, 1.182663599960506, 1.198698499938473, 1.2172611998394132, 1.2329525998793542, 1.250281099928543, 1.2660660999827087, 1.283193700015545, 1.2991212999913841, 1.3175617000088096, 1.3326133999507874, 1.349922299850732, 1.3658877999987453, 1.3858989998698235, 1.4003428998403251, 1.415692799957469, 1.4327628000173718]
testa;2;0;0;1;False;3000;True;;8;6.10887750785208;drag;L;6.9165955;0.3401604;2.82;6.92;1.833401900017634;1.8335068000014871;1684835852.6268375;1684835852.6385067;1684835853.3926208;1684835853.8951797;1684835856.8932445;1684835858.7272954;[0.0, 0.0, 0.0, 0.0, 0.0, 0.0, 0.0, 0.0, 0.0, 0.0, 0.0, 0.0, 0.0, 0.0, 0.0, 0.0, 0.0, 0.0, 0.0, 0.0, 0.0, 0.0, 0.0, 0.0, 0.0, 0.0, 0.0, 0.0, 0.0, 1.6441087, 2.4094696, 3.0047503, 3.713418, 4.025232, 4.252005, 4.620512, 4.818939, 5.017366, 5.1024065, 5.1591, 5.2441397, 5.2724867, 5.3575263, 5.41422, 5.4709134, 5.527607, 5.5843005, 5.6409936, 5.697687, 5.782727, 6.1795807, 6.4630475, 6.6614747, 6.8032084, 6.9165955, 6.9732885, 7.029982, 7.086675, 7.1150217, 7.1717157, 7.2000623, 7.2000623, 7.228409, 7.2567554, 7.285102, 7.285102, 7.285102, 7.285102, 7.285102, 7.285102, 7.285102, 7.285102, 7.285102, 7.285102, 7.285102, 7.285102, 7.285102, 7.285102, 7.285102, 7.2567554, 7.2567554, 7.228409, 7.228409, 7.2000623, 7.2000623, 7.2000623, 7.143369, 7.143369, 7.143369, 7.1150217, 7.086675, 7.086675, 7.0583286, 7.029982, 7.0016356, 6.9732885, 6.9732885, 6.944942, 6.944942, 6.9165955, 6.9165955, 6.9165955, 6.9165955, 6.9165955, 6.9165955, 6.9165955, 6.9165955, 6.9165955, 6.9165955, 6.9165955];[0.0, 0.0, 0.0, 0.0, 0.0, 0.0, 0.0, 0.0, 0.0, 0.0, 0.0, 0.0, 0.0, 0.0, 0.0, 0.0, 0.0, 0.0, 0.0, 0.0, 0.0, 0.0, 0.0, 0.0, 0.0, 0.0, 0.0, 0.0, 0.0, -0.0566934, -0.0283467, 0.0283467, 0.14173351, 0.1700802, 0.19842692, 0.19842692, 0.19842692, 0.2267736, 0.2267736, 0.2551203, 0.28346702, 0.28346702, 0.28346702, 0.28346702, 0.28346702, 0.28346702, 0.28346702, 0.28346702, 0.2551203, 0.2267736, 0.0850401, 0.0, -0.0566934, -0.0850401, -0.0850401, -0.0850401, -0.0850401, -0.0850401, -0.0850401, -0.0850401, -0.0850401, -0.0850401, -0.0850401, -0.0850401, -0.0850401, -0.0850401, -0.0850401, -0.0850401, -0.0850401, -0.0850401, -0.0850401, -0.0850401, -0.0850401, -0.0850401, -0.0850401, -0.0850401, -0.0850401, -0.0850401, -0.0566934, -0.0566934, -0.0283467, -0.0283467, 0.0283467, 0.0566934, 0.0566934, 0.0850401, 0.0850401, 0.1133868, 0.1133868, 0.14173351, 0.14173351, 0.19842692, 0.19842692, 0.2267736, 0.28346702, 0.3118137, 0.3118137, 0.3401604, 0.3401604, 0.3401604, 0.3401604, 0.3401604, 0.3401604, 0.3401604, 0.3401604, 0.3401604, 0.3401604, 0.3401604, 0.3401604, 0.3401604];[0.003757299855351448, 0.016905999975278974, 0.0351199998985976, 0.050178999779745936, 0.06794709991663694, 0.08388469996862113, 0.10221969988197088, 0.11678779986687005, 0.13527609989978373, 0.15094149997457862, 0.16870049992576241, 0.1848984998650849, 0.20058609987609088, 0.21763989981263876, 0.23524719988927245, 0.2516961998771876, 0.2682876999024302, 0.28496029996313155, 0.300683899782598, 0.31727899983525276, 0.33473969995975494, 0.3504745999816805, 0.3679615999571979, 0.38421849999576807, 0.40148299979045987, 0.4165528998710215, 0.4363919999450445, 0.449581699911505, 0.4686459999065846, 0.48514429992064834, 0.500453099841252, 0.5177090999204665, 0.5340632000006735, 0.5499405998270959, 0.5681181999389082, 0.5842199998442084, 0.602025699801743, 0.6183755998499691, 0.6345604998059571, 0.6510130998212844, 0.6664502997882664, 0.6841549999080598, 0.7033112999051809, 0.7175994999706745, 0.7336864999961108, 0.7506590997800231, 0.7667295997962356, 0.7835558999795467, 0.8008967000059783, 0.8172788999509066, 0.8360643999185413, 0.8501208999659866, 0.8682959999423474, 0.8833099999465048, 0.9004566997755319, 0.9189337999559939, 0.9350628999527544, 0.9498809999786317, 0.9698514000046998, 0.9830013997852802, 1.0005172998644412, 1.0169775998219848, 1.03365009999834, 1.0501249998342246, 1.069191199960187, 1.0831130999140441, 1.1015902999788523, 1.1171459998004138, 1.1356427997816354, 1.151304299943149, 1.1688382998108864, 1.1844563998747617, 1.2001544998493046, 1.2180436998605728, 1.2357818000018597, 1.2506047999486327, 1.2688887999393046, 1.284254599828273, 1.3012439999729395, 1.3172728999052197, 1.3342106000054628, 1.3502223999239504, 1.3695582998916507, 1.3839032999239862, 1.402046199887991, 1.416301699820906, 1.4341099997982383, 1.4512454997748137, 1.465758099919185, 1.483082499820739, 1.5018882998265326, 1.5179062997922301, 1.5339723997749388, 1.549863399937749, 1.567591399885714, 1.585089499829337, 1.6004526999313384, 1.6178021999076009, 1.635694099823013, 1.6506478998344392, 1.6675574998371303, 1.6836259998381138, 1.7015614998526871, 1.7169447999913245, 1.7354708998464048, 1.7500334999058396, 1.76891059987247, 1.7840996999293566, 1.8015269997995347, 1.8177378999534994]
testa;3;0;0;1;False;1000;True;;8;-46.176892519214256;drag;L;4.620512;-4.875633;-46.54;6.72;1.4853242998942733;1.485409899847582;1684835859.606251;1684835859.6219244;1684835860.3765013;1684835860.877329;1684835861.8585088;1684835863.3439944;[0.0, 0.0, 0.0, 0.0, 0.0, 0.0, 0.0, 0.0, 0.0, 0.0, 0.0, 0.0, 0.0, 0.0, 0.0, 0.0, 0.0, 0.0, 0.0, 0.0, 0.0, 0.0, 0.0, 0.0, 0.0, 0.0, 0.0, 0.0, 0.0, 0.0, 0.0, 0.0, 0.0, 0.0, 0.0, 0.0, 0.0, 0.0, 0.0, 0.0, 1.2472548, 2.7212832, 3.4866443, 3.9401915, 4.337045, 4.4504323, 4.5354724, 4.5921655, 4.5921655, 4.5921655, 4.5921655, 4.5921655, 4.620512, 4.648859, 4.7055526, 4.733899, 4.733899, 4.762246, 4.762246, 4.762246, 4.762246, 4.762246, 4.762246, 4.762246, 4.762246, 4.762246, 4.762246, 4.762246, 4.762246, 4.762246, 4.762246, 4.762246, 4.7055526, 4.648859, 4.648859, 4.620512, 4.620512, 4.620512, 4.620512, 4.620512, 4.620512, 4.620512, 4.620512, 4.620512, 4.620512, 4.620512, 4.620512, 4.620512, 4.620512];[0.0, 0.0, 0.0, 0.0, 0.0, 0.0, 0.0, 0.0, 0.0, 0.0, 0.0, 0.0, 0.0, 0.0, 0.0, 0.0, 0.0, 0.0, 0.0, 0.0, 0.0, 0.0, 0.0, 0.0, 0.0, 0.0, 0.0, 0.0, 0.0, 0.0, 0.0, 0.0, 0.0, 0.0, 0.0, 0.0, 0.0, 0.0, 0.0, 0.0, -1.1622148, -2.5512033, -3.2598708, -3.770111, -4.1386185, -4.2803516, -4.3937387, -4.5071254, -4.563819, -4.733899, -4.847286, -5.017366, -5.1591, -5.2724867, -5.4425664, -5.527607, -5.5559535, -5.612647, -5.6409936, -5.66934, -5.66934, -5.66934, -5.66934, -5.66934, -5.66934, -5.6409936, -5.612647, -5.5843005, -5.527607, -5.4709134, -5.3575263, -5.2441397, -5.130753, -4.9890194, -4.960673, -4.932326, -4.9039793, -4.875633, -4.875633, -4.875633, -4.875633, -4.875633, -4.875633, -4.875633, -4.875633, -4.875633, -4.875633, -4.875633, -4.875633];[0.0036822999827563763, 0.019343999912962317, 0.03400740004144609, 0.05223280005156994, 0.0687946998514235, 0.08633009996265173, 0.10179800004698336, 0.12038680003024638, 0.13555029989220202, 0.15230780001729727, 0.16802809992805123, 0.18625909998081625, 0.20099209994077682, 0.22010389994829893, 0.23567730002105236, 0.25235079997219145, 0.26910689985379577, 0.28677430003881454, 0.301287799840793, 0.31926129991188645, 0.33559260005131364, 0.35268060001544654, 0.3680693998467177, 0.3870759999845177, 0.40173279982991517, 0.4201990000437945, 0.4350592999253422, 0.4534865999594331, 0.4683979998808354, 0.48700129985809326, 0.500929499976337, 0.5192002998664975, 0.5352221999783069, 0.552952699828893, 0.5689138998277485, 0.5867512000259012, 0.6020863000303507, 0.6201261999085546, 0.6355477999895811, 0.6538223000243306, 0.6695876999292523, 0.6863867999054492, 0.7015239999163896, 0.7196104999165982, 0.7349260000046343, 0.7528111999854445, 0.7697300999425352, 0.7852997998706996, 0.8016031999140978, 0.8201698998454958, 0.8346621999517083, 0.8534669999498874, 0.8680153999011964, 0.886259299935773, 0.9034064000006765, 0.9187963998410851, 0.9372437000274658, 0.9528097999282181, 0.968065100023523, 0.9874305999837816, 1.0012956999707967, 1.0191410998813808, 1.0360409999266267, 1.0530357998795807, 1.0684199000243098, 1.0874393999110907, 1.101005399832502, 1.119276899844408, 1.1354664999525994, 1.1516976999118924, 1.1703554999548942, 1.1849839999340475, 1.2017683999147266, 1.2200607999693602, 1.2344410000368953, 1.2537299999967217, 1.267693700036034, 1.2856862000189722, 1.3016609998885542, 1.3175625000149012, 1.334679199848324, 1.3529580000322312, 1.36726800003089, 1.3843028999399394, 1.4009080999530852, 1.417133599985391, 1.4342541999649256, 1.4517116998322308, 1.4692265999037772]
testa;4;0;0;1;False;1000;True;;8;34.18739295922756;drag;L;6.7465153;5.130753;37.25;8.48;1.4159412998706102;1.4160305999685079;1684835864.0755794;1684835864.0881875;1684835864.8433232;1684835865.3441863;1684835866.3252492;1684835867.7417195;[0.0, 0.0, 0.0, 0.0, 0.0, 0.0, 0.0, 0.0, 0.0, 0.0, 0.0, 0.0, 0.0, 0.0, 0.0, 0.0, 0.0, 0.0, 0.0, 0.0, 0.0, 0.0, 0.0, 0.0, 0.0, 0.0, 0.0, 0.0, 0.0, 0.0, 0.0, 0.0, 0.0, 0.0, 0.0, 0.0, 0.0, 0.0, 0.0, 0.0, 0.9921345, 1.8708823, 2.4945097, 3.1748307, 3.4582977, 3.6567245, 3.911845, 4.0535784, 4.166965, 4.3086987, 4.365392, 4.422086, 4.478779, 4.5354724, 4.620512, 4.6772056, 4.762246, 4.847286, 4.9039793, 5.017366, 5.2441397, 5.4425664, 5.75438, 5.924461, 6.1228876, 6.3496614, 6.4630475, 6.5764346, 6.633128, 6.6898212, 6.7181687, 6.7181687, 6.7465153, 6.7465153, 6.7465153, 6.7465153, 6.7465153, 6.7465153, 6.7465153, 6.7465153, 6.7465153, 6.7465153, 6.7465153, 6.7465153, 6.7465153];[0.0, 0.0, 0.0, 0.0, 0.0, 0.0, 0.0, 0.0, 0.0, 0.0, 0.0, 0.0, 0.0, 0.0, 0.0, 0.0, 0.0, 0.0, 0.0, 0.0, 0.0, 0.0, 0.0, 0.0, 0.0, 0.0, 0.0, 0.0, 0.0, 0.0, 0.0, 0.0, 0.0, 0.0, 0.0, 0.0, 0.0, 0.0, 0.0, 0.0, 0.6236274, 1.2756016, 1.7858423, 2.3527763, 2.6078966, 2.8063235, 3.0614438, 3.2315238, 3.316564, 3.4866443, 3.5433376, 3.6283777, 3.6850712, 3.770111, 3.8268046, 3.8834982, 3.968538, 3.996885, 4.0535784, 4.1386185, 4.252005, 4.3086987, 4.4504323, 4.5921655, 4.7055526, 4.847286, 4.932326, 5.017366, 5.045713, 5.1024065, 5.1024065, 5.130753, 5.130753, 5.130753, 5.130753, 5.130753, 5.130753, 5.130753, 5.130753, 5.130753, 5.130753, 5.130753, 5.130753, 5.130753, 5.130753];[0.0038186998572200537, 0.019711599918082356, 0.03541509993374348, 0.05305139999836683, 0.06881369999609888, 0.08593999990262091, 0.1006918998900801, 0.11972899991087615, 0.13469500001519918, 0.15132860001176596, 0.16862619994208217, 0.18623110000044107, 0.20050249993801117, 0.2189461998641491, 0.23555659991689026, 0.252379999961704, 0.2683696998283267, 0.2860409999266267, 0.30147179984487593, 0.31799119990319014, 0.33378039998933673, 0.34930319990962744, 0.36651519988663495, 0.3859862999524921, 0.40102599980309606, 0.4195773999672383, 0.43555289995856583, 0.45293339993804693, 0.4684489998035133, 0.4858040998224169, 0.5010166999418288, 0.5195863998960704, 0.5335217998363078, 0.5512243998236954, 0.5689438998233527, 0.5864877998828888, 0.6019458998925984, 0.6194738999474794, 0.6350805999245495, 0.6525766998529434, 0.6692433999851346, 0.6855711999814957, 0.7009725999087095, 0.7177005999255925, 0.73414699989371, 0.752299299929291, 0.767508199904114, 0.7852996999863535, 0.8012745999731123, 0.8185665998607874, 0.8366528998594731, 0.8520920998416841, 0.8678710998501629, 0.8870351000223309, 0.9013218998443335, 0.9183791999239475, 0.9358935998752713, 0.9508294998668134, 0.9676375000271946, 0.9841620000079274, 0.9995971999596804, 1.0187393999658525, 1.0341905998066068, 1.0518034999258816, 1.0671198999043554, 1.0865259999409318, 1.1018024999648333, 1.1174291998613626, 1.1349452999420464, 1.1537071999628097, 1.167915099998936, 1.1849265999626368, 1.2008728999644518, 1.2189024998806417, 1.234567599836737, 1.2536357999779284, 1.2674783999100327, 1.286620399914682, 1.300904099829495, 1.3175309000071138, 1.3328606998547912, 1.3500206000171602, 1.3654533999506384, 1.3833774998784065, 1.3998418999835849]
testa;5;0;0;1;False;3000;True;;8;-86.92737034959403;drag;L;0.4535472;-7.483529;-86.53;7.5;1.6814032001420856;1.6815186000894755;1684835868.476667;1684835868.487579;1684835869.2431376;1684835869.7430706;1684835872.7431605;1684835874.4245243;[0.0, 0.0, 0.0, 0.0, 0.0, 0.0, 0.0, 0.0, 0.0, 0.0, 0.0, 0.0, 0.0, 0.0, 0.0, 0.0, 0.0, 0.0, 0.0, 0.0, 0.0, 0.0, 0.0, 0.0, 0.0, 0.0, 0.0, 0.0, 0.0, 0.0283467, 0.0850401, 0.1133868, 0.1700802, 0.1700802, 0.19842692, 0.2267736, 0.2267736, 0.2551203, 0.2551203, 0.2551203, 0.2551203, 0.2551203, 0.2551203, 0.2551203, 0.2551203, 0.2551203, 0.2551203, 0.2551203, 0.2551203, 0.2551203, 0.2551203, 0.2551203, 0.2551203, 0.2551203, 0.2551203, 0.2551203, 0.2551203, 0.2551203, 0.2551203, 0.2551203, 0.2551203, 0.2551203, 0.2551203, 0.2551203, 0.2551203, 0.28346702, 0.3118137, 0.3401604, 0.36850712, 0.39685383, 0.39685383, 0.42520052, 0.42520052, 0.42520052, 0.42520052, 0.42520052, 0.42520052, 0.42520052, 0.42520052, 0.42520052, 0.4535472, 0.4535472, 0.4535472, 0.4535472, 0.4535472, 0.4535472, 0.4535472, 0.4535472, 0.4535472, 0.4535472, 0.4535472, 0.4535472, 0.4535472, 0.4535472, 0.4535472, 0.4535472, 0.4535472, 0.4535472, 0.4535472, 0.4535472, 0.4535472];[0.0, 0.0, 0.0, 0.0, 0.0, 0.0, 0.0, 0.0, 0.0, 0.0, 0.0, 0.0, 0.0, 0.0, 0.0, 0.0, 0.0, 0.0, 0.0, 0.0, 0.0, 0.0, 0.0, 0.0, 0.0, 0.0, 0.0, 0.0, 0.0, -1.1055214, -2.182696, -2.6362433, -3.316564, -3.5716846, -3.8834982, -4.365392, -4.620512, -4.9890194, -5.215793, -5.4425664, -5.924461, -6.434701, -7.143369, -7.3984895, -7.540222, -7.6252627, -7.681956, -7.710303, -7.7386494, -7.795343, -7.795343, -7.82369, -7.82369, -7.8520365, -7.8520365, -7.8520365, -7.8520365, -7.8520365, -7.8520365, -7.8520365, -7.8520365, -7.8520365, -7.8520365, -7.8520365, -7.8520365, -7.795343, -7.681956, -7.6536093, -7.6252627, -7.5685697, -7.5685697, -7.540222, -7.5118756, -7.5118756, -7.5118756, -7.5118756, -7.5118756, -7.5118756, -7.5118756, -7.5118756, -7.483529, -7.483529, -7.483529, -7.483529, -7.483529, -7.483529, -7.483529, -7.483529, -7.483529, -7.483529, -7.483529, -7.483529, -7.483529, -7.483529, -7.483529, -7.483529, -7.483529, -7.483529, -7.483529, -7.483529, -7.483529];[0.004604800138622522, 0.01625330001115799, 0.034459999995306134, 0.05078390007838607, 0.06761580007150769, 0.08372360002249479, 0.10080979997292161, 0.1175466999411583, 0.13455509999766946, 0.15031519997864962, 0.1673012999817729, 0.1819977001287043, 0.20047960011288524, 0.21708930004388094, 0.23527900013141334, 0.2502953000366688, 0.268418800085783, 0.28297509998083115, 0.3008912999648601, 0.3172341000754386, 0.3342595000285655, 0.34989880002103746, 0.3684573001228273, 0.38389870012179017, 0.3992339000105858, 0.41572659998200834, 0.43414729996584356, 0.44993990007787943, 0.46679600002244115, 0.4833244001492858, 0.49963219999335706, 0.5168874999508262, 0.534387500025332, 0.5498304001521319, 0.567207399988547, 0.5828132000751793, 0.6029861001297832, 0.6171953999437392, 0.6326460000127554, 0.6500854000914842, 0.6664220001548529, 0.6822075999807566, 0.7019231000449508, 0.7167956000193954, 0.7356128999963403, 0.7512435000389814, 0.7662746999412775, 0.7844804001506418, 0.7992509000468999, 0.8157866999972612, 0.8329786001704633, 0.8488670000806451, 0.8668098000343889, 0.8836072999984026, 0.9006481000687927, 0.9170524999499321, 0.934461000142619, 0.9507417001295835, 0.9674267000518739, 0.9830772001296282, 0.9997615001630038, 1.016410900047049, 1.0331095999572426, 1.0503000000026077, 1.0655865999870002, 1.082462500082329, 1.1020502001047134, 1.1152222000528127, 1.1326820000540465, 1.150433799950406, 1.166329300031066, 1.1843707000371069, 1.199482100084424, 1.2148955999873579, 1.234215300064534, 1.2489378000609577, 1.267043200088665, 1.2835177001543343, 1.2996311001479626, 1.3157220999710262, 1.3325229999609292, 1.3487327001057565, 1.3673470001667738, 1.3828938000369817, 1.4001219000201672, 1.4159631000366062, 1.4331956000532955, 1.4501968999393284, 1.4671800001524389, 1.483782900031656, 1.501793400151655, 1.5159871999640018, 1.5344851999543607, 1.5499776999931782, 1.5679989999625832, 1.5836593001149595, 1.6005772000644356, 1.616039700107649, 1.6331124999560416, 1.648522299947217, 1.6670165001414716]
testa;6;0;0;1;False;3000;True;;8;-102.98573347471917;drag;L;-2.381123;-6.888248;-109.07;7.29;1.2657884999644011;1.2658943999558687;1684835875.2426088;1684835875.2545974;1684835876.0091338;1684835876.5101316;1684835879.5094867;1684835880.7752054;[0.0, 0.0, 0.0, 0.0, 0.0, 0.0, 0.0, 0.0, 0.0, 0.0, 0.0, 0.0, 0.0, 0.0, 0.0, 0.0, 0.0, 0.0, 0.0, 0.0, 0.0, 0.0, 0.0, 0.0, 0.0, -0.14173351, -0.79370767, -1.6724553, -2.2677362, -2.57955, -2.8063235, -2.8913634, -2.948057, -2.948057, -2.9764037, -2.9764037, -2.9764037, -2.9764037, -2.9764037, -2.9764037, -2.9764037, -2.9764037, -2.9764037, -2.9764037, -2.9764037, -2.9764037, -2.9764037, -2.9197102, -2.8630168, -2.7496302, -2.66459, -2.6078966, -2.5228565, -2.4945097, -2.466163, -2.4378164, -2.4094696, -2.4094696, -2.381123, -2.381123, -2.381123, -2.381123, -2.381123, -2.381123, -2.381123, -2.381123, -2.381123, -2.381123, -2.381123, -2.381123, -2.381123, -2.381123, -2.381123, -2.381123, -2.381123];[0.0, 0.0, 0.0, 0.0, 0.0, 0.0, 0.0, 0.0, 0.0, 0.0, 0.0, 0.0, 0.0, 0.0, 0.0, 0.0, 0.0, 0.0, 0.0, 0.0, 0.0, 0.0, 0.0, 0.0, 0.0, -0.56693405, -2.5228565, -4.9039793, -6.1228876, -6.7181687, -7.1717157, -7.426836, -7.5118756, -7.540222, -7.5685697, -7.5685697, -7.596916, -7.596916, -7.596916, -7.596916, -7.596916, -7.596916, -7.596916, -7.596916, -7.596916, -7.596916, -7.596916, -7.540222, -7.426836, -7.2567554, -7.2000623, -7.1150217, -7.029982, -7.0016356, -6.9732885, -6.944942, -6.9165955, -6.9165955, -6.888248, -6.888248, -6.888248, -6.888248, -6.888248, -6.888248, -6.888248, -6.888248, -6.888248, -6.888248, -6.888248, -6.888248, -6.888248, -6.888248, -6.888248, -6.888248, -6.888248];[0.005597200011834502, 0.03189070010557771, 0.05214680009521544, 0.06793710007332265, 0.08472859999164939, 0.10098180011846125, 0.11857010005041957, 0.13417560001835227, 0.15159560018219054, 0.1679491000249982, 0.18518350017257035, 0.19986960012465715, 0.2191868000663817, 0.23430370003916323, 0.2517024001572281, 0.2669757001567632, 0.2849128001835197, 0.3005809001624584, 0.3183675999753177, 0.33444020012393594, 0.3521444001235068, 0.3665823000483215, 0.38518580002710223, 0.4012244001496583, 0.41796039999462664, 0.43554880004376173, 0.4505927001591772, 0.4695633000228554, 0.48368720011785626, 0.5008680999744684, 0.5166279000695795, 0.5332878001499921, 0.5503557999618351, 0.5659217000938952, 0.5830670001450926, 0.6000691000372171, 0.6172554001677781, 0.6339869000948966, 0.652516599977389, 0.66708689997904, 0.6861316000577062, 0.7004839000292122, 0.7195826000533998, 0.7346447000745684, 0.7519960000645369, 0.7669985999818891, 0.7857011000160128, 0.8007384000811726, 0.820394900161773, 0.8359324999619275, 0.8514986000955105, 0.867262199986726, 0.884537799982354, 0.8991004000417888, 0.9194839999545366, 0.932521500159055, 0.9522237000055611, 0.9670134000480175, 0.9839628001209348, 1.0014170000795275, 1.0179447999689728, 1.033417999977246, 1.0526757000479847, 1.067196600139141, 1.0847649001516402, 1.1004262000788003, 1.1187696000561118, 1.1344843001570553, 1.1518510000314564, 1.1668833000585437, 1.1847960001323372, 1.1993011001031846, 1.216636500088498, 1.2339188000187278, 1.2507903000805527]
testa;7;0;0;1;False;1000;True;;8;4.2064372535312256;drag;L;7.3701425;0.3401604;2.64;7.38;1.6325548000168055;1.6326490000355989;1684835881.452516;1684835881.470737;1684835882.2261612;1684835882.72679;1684835883.7084277;1684835885.3410199;[0.0, 0.0, 0.0, 0.0, 0.0, 0.0, 0.0, 0.0, 0.0, 0.0, 0.0, 0.0, 0.0, 0.0, 0.0, 0.0, 0.0, 0.0, 0.0, 0.0, 0.0, 0.0, 0.0, 0.0, 0.0, 0.0, 0.0, 1.3889884, 1.8708823, 2.83467, 3.3449106, 3.713418, 3.8551514, 4.081925, 4.166965, 4.252005, 4.337045, 4.3937387, 4.4504323, 4.5354724, 4.5921655, 4.6772056, 4.7055526, 4.762246, 4.847286, 4.9039793, 4.9890194, 5.1024065, 5.3858733, 6.037847, 6.633128, 7.0583286, 7.540222, 7.7386494, 7.937076, 8.07881, 8.16385, 8.220544, 8.24889, 8.305584, 8.305584, 8.33393, 8.33393, 8.33393, 8.33393, 8.33393, 8.33393, 8.305584, 8.220544, 8.107157, 7.99377, 7.880383, 7.82369, 7.7669964, 7.7669964, 7.710303, 7.681956, 7.6536093, 7.596916, 7.5685697, 7.540222, 7.483529, 7.4551826, 7.426836, 7.426836, 7.3984895, 7.3701425, 7.3701425, 7.3701425, 7.3701425, 7.3701425, 7.3701425, 7.3701425, 7.3701425, 7.3701425, 7.3701425, 7.3701425, 7.3701425];[0.0, 0.0, 0.0, 0.0, 0.0, 0.0, 0.0, 0.0, 0.0, 0.0, 0.0, 0.0, 0.0, 0.0, 0.0, 0.0, 0.0, 0.0, 0.0, 0.0, 0.0, 0.0, 0.0, 0.0, 0.0, 0.0, 0.0, 0.1700802, 0.2267736, 0.39685383, 0.48189393, 0.53858733, 0.56693405, 0.59528077, 0.59528077, 0.59528077, 0.59528077, 0.59528077, 0.59528077, 0.59528077, 0.59528077, 0.59528077, 0.59528077, 0.59528077, 0.6236274, 0.6236274, 0.6236274, 0.6236274, 0.6236274, 0.65197414, 0.65197414, 0.65197414, 0.73701423, 0.8220543, 0.85040104, 0.87874776, 0.87874776, 0.87874776, 0.87874776, 0.87874776, 0.87874776, 0.87874776, 0.87874776, 0.87874776, 0.87874776, 0.85040104, 0.8220543, 0.76536095, 0.7086675, 0.6236274, 0.56693405, 0.5102406, 0.48189393, 0.4535472, 0.4535472, 0.4535472, 0.4535472, 0.42520052, 0.42520052, 0.39685383, 0.39685383, 0.36850712, 0.3401604, 0.3401604, 0.3401604, 0.3401604, 0.3401604, 0.3401604, 0.3401604, 0.3401604, 0.3401604, 0.3401604, 0.3401604, 0.3401604, 0.3401604, 0.3401604, 0.3401604, 0.3401604];[0.003928299993276596, 0.019243699964135885, 0.033755999989807606, 0.05113880010321736, 0.0678298999555409, 0.084680600091815, 0.1008550999686122, 0.11826339992694557, 0.1333300000987947, 0.151928799925372, 0.16711380006745458, 0.18441609991714358, 0.2000518999993801, 0.21918429993093014, 0.2345239999704063, 0.2521921000443399, 0.26662030001170933, 0.2855161000043154, 0.3006523000076413, 0.3189318000804633, 0.33406440005637705, 0.3513539000414312, 0.3678331000264734, 0.3842541000340134, 0.4004166000522673, 0.4186217999085784, 0.43412759993225336, 0.45465600001625717, 0.46672690007835627, 0.48405020008794963, 0.5018044000025839, 0.5176121999975294, 0.5338997999206185, 0.5524222000967711, 0.5679375000763685, 0.5840354999527335, 0.601285699987784, 0.6163860000669956, 0.6342698999214917, 0.6507918001152575, 0.6680970001034439, 0.6859351000748575, 0.700860199984163, 0.7184385999571532, 0.7346268999390304, 0.7501958000939339, 0.7673202001024038, 0.7829318000003695, 0.7999641001224518, 0.8191140000708401, 0.8339384999126196, 0.8511066001374274, 0.868484599981457, 0.8846112000755966, 0.9010125000495464, 0.917624399997294, 0.9319315000902861, 0.9531058999709785, 0.9668785999529064, 0.9878627001307905, 0.9998735999688506, 1.0170032000169158, 1.033391300123185, 1.05106749990955, 1.0670429000165313, 1.0866580000147223, 1.099521999945864, 1.1190152000635862, 1.13501049997285, 1.1503335000015795, 1.1678128999192268, 1.1834843999240547, 1.200425999937579, 1.2186181000433862, 1.2315666999202222, 1.2518174001015723, 1.2660344999749213, 1.2835929999127984, 1.3001767999958247, 1.317657700041309, 1.3325867000967264, 1.3530288999900222, 1.3658911001402885, 1.3865279001183808, 1.4010439000558108, 1.4174577000085264, 1.4356195000000298, 1.4511389001272619, 1.466468600090593, 1.4846145999617875, 1.4999564001336694, 1.5176274001132697, 1.5337614000309259, 1.5521811000071466, 1.5677112000994384, 1.5834053000435233, 1.5992014000657946, 1.618422199971974]
testa;8;0;0;1;False;3000;True;;8;-88.98369428230238;drag;L;0.1700802;-7.681956;-88.73;7.68;2.7825297999661416;2.7826500998344272;1684835886.2707157;1684835886.286763;1684835887.0427732;1684835887.5438838;1684835890.5414233;1684835893.323837;[0.0, 0.0, 0.0, 0.0, 0.0, 0.0, 0.0, 0.0, 0.0, 0.0, 0.0, 0.0, 0.0, 0.0, 0.0, 0.0, 0.0, 0.0, 0.0, 0.0, 0.0, 0.0, 0.0, 0.0, 0.0, 0.0, 0.0, 0.0566934, 0.1133868, 0.14173351, 0.14173351, 0.14173351, 0.14173351, 0.1133868, 0.0850401, 0.0566934, 0.0566934, 0.0566934, 0.0566934, 0.0566934, 0.0566934, 0.0566934, 0.0566934, 0.0566934, 0.0566934, 0.0566934, 0.0566934, 0.0566934, 0.0566934, 0.0566934, 0.0566934, 0.0566934, 0.0566934, 0.0566934, 0.0566934, 0.0566934, 0.0566934, 0.0566934, 0.0566934, 0.0566934, 0.0566934, 0.0566934, 0.0566934, 0.0566934, 0.0566934, 0.0566934, 0.0566934, 0.0566934, 0.0566934, 0.0566934, 0.0566934, 0.0566934, 0.0566934, 0.0566934, 0.0566934, 0.0566934, 0.0566934, 0.0566934, 0.0566934, 0.0566934, 0.0566934, 0.0566934, 0.0566934, 0.0566934, 0.0566934, 0.0566934, 0.0566934, 0.0566934, 0.0566934, 0.0566934, 0.0566934, 0.0566934, 0.0566934, 0.0566934, 0.0566934, 0.0566934, 0.0566934, 0.0566934, 0.0566934, 0.0566934, 0.0566934, 0.0566934, 0.0566934, 0.0566934, 0.0566934, 0.0566934, 0.0566934, 0.0566934, 0.0566934, 0.0566934, 0.0566934, 0.0566934, 0.0566934, 0.0566934, 0.0566934, 0.0566934, 0.0566934, 0.0566934, 0.0566934, 0.0566934, 0.0566934, 0.0566934, 0.0566934, 0.0566934, 0.0566934, 0.0566934, 0.0566934, 0.0566934, 0.0566934, 0.0566934, 0.0566934, 0.0566934, 0.0566934, 0.0566934, 0.0566934, 0.0566934, 0.0566934, 0.0850401, 0.0850401, 0.1133868, 0.1133868, 0.14173351, 0.1700802, 0.1700802, 0.1700802, 0.1700802, 0.1700802, 0.1700802, 0.1700802, 0.1700802, 0.1700802, 0.1700802, 0.1700802, 0.1700802, 0.1700802, 0.1700802, 0.1700802, 0.1700802, 0.1700802, 0.1700802, 0.1700802, 0.1700802, 0.1700802, 0.1700802, 0.1700802, 0.1700802, 0.1700802];[0.0, 0.0, 0.0, 0.0, 0.0, 0.0, 0.0, 0.0, 0.0, 0.0, 0.0, 0.0, 0.0, 0.0, 0.0, 0.0, 0.0, 0.0, 0.0, 0.0, 0.0, 0.0, 0.0, 0.0, 0.0, 0.0, 0.0, -1.1055214, -2.0693092, -2.4378164, -2.8913634, -3.3732576, -3.7417645, -4.0535784, -4.337045, -4.5071254, -4.6772056, -4.932326, -5.1874466, -5.3575263, -5.7260337, -5.924461, -6.151234, -6.2079277, -6.2079277, -6.2079277, -6.2079277, -6.2079277, -6.2079277, -6.2079277, -6.2079277, -6.2079277, -6.2079277, -6.2079277, -6.2079277, -6.2079277, -6.2079277, -6.2079277, -6.2079277, -6.2079277, -6.2079277, -6.2079277, -6.2079277, -6.2079277, -6.2079277, -6.2079277, -6.2079277, -6.2079277, -6.2079277, -6.2079277, -6.2079277, -6.2079277, -6.2079277, -6.2079277, -6.2079277, -6.2079277, -6.2079277, -6.2079277, -6.2079277, -6.2079277, -6.2079277, -6.2079277, -6.2079277, -6.2079277, -6.2079277, -6.2079277, -6.2079277, -6.2079277, -6.2079277, -6.2079277, -6.2079277, -6.2079277, -6.2079277, -6.2079277, -6.2079277, -6.2079277, -6.2079277, -6.2079277, -6.2079277, -6.2079277, -6.2079277, -6.2079277, -6.2079277, -6.2079277, -6.2079277, -6.2079277, -6.2079277, -6.2079277, -6.2079277, -6.2079277, -6.2079277, -6.2079277, -6.378008, -6.5764346, -6.6614747, -6.7465153, -6.8032084, -6.831555, -6.8599014, -6.888248, -6.9732885, -7.029982, -7.086675, -7.1717157, -7.285102, -7.4551826, -7.6252627, -7.795343, -7.9087296, -7.9654226, -8.050464, -8.050464, -8.07881, -8.07881, -8.07881, -8.07881, -8.07881, -8.022117, -7.9654226, -7.9087296, -7.8520365, -7.82369, -7.7669964, -7.7669964, -7.7386494, -7.7386494, -7.710303, -7.710303, -7.710303, -7.710303, -7.710303, -7.710303, -7.681956, -7.681956, -7.681956, -7.681956, -7.681956, -7.681956, -7.681956, -7.681956, -7.681956, -7.681956, -7.681956, -7.681956, -7.681956, -7.681956, -7.681956];[0.0056090999860316515, 0.01809309981763363, 0.035104099893942475, 0.05098279984667897, 0.06917609996162355, 0.08404479990713298, 0.10219069989398122, 0.1179465998429805, 0.1362673998810351, 0.15119469980709255, 0.1660529999062419, 0.18194459984079003, 0.1991869998164475, 0.2152195000089705, 0.23253479995764792, 0.2486900999210775, 0.2665505998302251, 0.28253620001487434, 0.2995183998718858, 0.3153627999126911, 0.3326053998898715, 0.34923469997011125, 0.365858499892056, 0.38161189993843436, 0.3990291999652982, 0.4158006999641657, 0.43320879992097616, 0.44860709994100034, 0.4658360998146236, 0.48252779990434647, 0.4997048999648541, 0.5156790998298675, 0.5338735999539495, 0.5488658000249416, 0.5661521998699754, 0.5822294999379665, 0.5999372999649495, 0.616060399916023, 0.6327642998658121, 0.6485400998499244, 0.666680800030008, 0.6826626998372376, 0.6995430998504162, 0.715877200011164, 0.7331260999199003, 0.7483487999998033, 0.7658955999650061, 0.7818148999940604, 0.7989669998642057, 0.8151097998488694, 0.8321775998920202, 0.8485214000102133, 0.8653666998725384, 0.8823044998571277, 0.8991480998229235, 0.9158959998749197, 0.9328073998913169, 0.9484554999507964, 0.9656282998621464, 0.9819730999879539, 0.9997692999895662, 1.0157012999989092, 1.0320819998160005, 1.0489511999767274, 1.0656476998701692, 1.081614200025797, 1.0987459998577833, 1.1156895000021905, 1.1325870999135077, 1.1487824998330325, 1.1668703998439014, 1.181465100031346, 1.2004149998538196, 1.2156525999307632, 1.2330515999346972, 1.2488875999115407, 1.265764500014484, 1.2814610998611897, 1.2987424000166357, 1.315615199971944, 1.333350099856034, 1.3485094998031855, 1.3657682000193745, 1.382168099982664, 1.399443499976769, 1.4153125998564065, 1.4325347000267357, 1.4486671998165548, 1.4660193999297917, 1.481910299975425, 1.4986493999604136, 1.5154702998697758, 1.532527199946344, 1.5506725998129696, 1.5657089999876916, 1.5815991999115795, 1.598835099954158, 1.6150082999374717, 1.6324222998227924, 1.6487181999254972, 1.6652837998699397, 1.681404799921438, 1.6990243999753147, 1.7154033000115305, 1.7320236000232399, 1.7485477000009269, 1.7656906000338495, 1.7819083000067621, 1.798620899906382, 1.8156059000175446, 1.83213369990699, 1.8487162999808788, 1.8655397999100387, 1.883006599964574, 1.900393599877134, 1.9165791999548674, 1.9333909000270069, 1.949515099870041, 1.9672051998786628, 1.982492599869147, 1.999731499934569, 2.0161352998111397, 2.0331949000246823, 2.0493693999014795, 2.06839989987202, 2.0866825999692082, 2.100665499921888, 2.1151913998182863, 2.1346582998521626, 2.149368899874389, 2.1688537998124957, 2.1837349999696016, 2.2005942999385297, 2.2168354999739677, 2.2351786999497563, 2.2514539000112563, 2.2688702000305057, 2.2852354999631643, 2.30285710003227, 2.317647899966687, 2.33740619989112, 2.35227939998731, 2.3682390998583287, 2.3845513998530805, 2.402103199856356, 2.4162720998283476, 2.4335980999749154, 2.450854899827391, 2.468178299954161, 2.484215899836272, 2.5022139998618513, 2.5175496998708695, 2.5373118999414146, 2.5508038999978453, 2.5683720998931676, 2.5831388998776674, 2.602318299934268, 2.617499199928716, 2.6346501000225544, 2.6511738998815417, 2.6694904000032693, 2.684027299983427, 2.7016491999384016, 2.7192579999100417, 2.73495509987697, 2.7505361998919398, 2.7691335999406874]
testa;9;0;0;1;False;1000;True;;8;62.54487242014161;drag;L;3.316564;6.434701;62.73;7.24;1.3320359999779612;1.3321320000104606;1684835894.058469;1684835894.0704916;1684835894.825213;1684835895.3253872;1684835896.3067784;1684835897.6391206;[0.0, 0.0, 0.0, 0.0, 0.0, 0.0, 0.0, 0.0, 0.0, 0.0, 0.0, 0.0, 0.0, 0.0, 0.0, 0.0, 0.0, 0.0, 0.0, 0.0, 0.0, 0.0, 0.0, 0.0, 0.0, 0.0, 0.0, 0.0, 0.2551203, 0.93544114, 1.1622148, 1.3889884, 1.5590686, 1.7291489, 1.8708823, 1.984269, 2.0409625, 2.1260026, 2.182696, 2.2393894, 2.3244295, 2.4378164, 2.57955, 2.6362433, 2.7212832, 2.7779768, 2.8630168, 2.948057, 3.0047503, 3.0614438, 3.0897903, 3.1181371, 3.146484, 3.1748307, 3.2315238, 3.2598708, 3.2598708, 3.2882173, 3.2882173, 3.316564, 3.316564, 3.316564, 3.316564, 3.316564, 3.316564, 3.316564, 3.316564, 3.316564, 3.316564, 3.316564, 3.316564, 3.316564, 3.316564, 3.316564, 3.316564, 3.316564, 3.316564, 3.316564, 3.316564, 3.316564];[0.0, 0.0, 0.0, 0.0, 0.0, 0.0, 0.0, 0.0, 0.0, 0.0, 0.0, 0.0, 0.0, 0.0, 0.0, 0.0, 0.0, 0.0, 0.0, 0.0, 0.0, 0.0, 0.0, 0.0, 0.0, 0.0, 0.0, 0.0, 0.5102406, 1.5307219, 1.8708823, 2.2393894, 2.4378164, 2.6362433, 2.8630168, 3.0614438, 3.2031772, 3.3449106, 3.4582977, 3.6567245, 3.8268046, 4.081925, 4.3937387, 4.5354724, 4.648859, 4.7905927, 4.9039793, 5.1874466, 5.41422, 5.5559535, 5.66934, 5.811074, 5.896114, 6.037847, 6.1228876, 6.2362742, 6.264621, 6.321315, 6.3496614, 6.378008, 6.4063544, 6.4063544, 6.434701, 6.434701, 6.434701, 6.434701, 6.434701, 6.434701, 6.434701, 6.434701, 6.434701, 6.434701, 6.434701, 6.434701, 6.434701, 6.434701, 6.434701, 6.434701, 6.434701, 6.434701];[0.003640200011432171, 0.02019549999386072, 0.034372400026768446, 0.052181300008669496, 0.06770909996703267, 0.08632900007069111, 0.10166930011473596, 0.11905580013990402, 0.13476070016622543, 0.15173180005513132, 0.16809460008516908, 0.18779140012338758, 0.20108150015585124, 0.21962129999883473, 0.23500340012833476, 0.2530641001649201, 0.2680017000529915, 0.28616290003992617, 0.3017180000897497, 0.31854750006459653, 0.3354878001846373, 0.3533070001285523, 0.36721789999864995, 0.3859266000799835, 0.40165440016426146, 0.4186901000794023, 0.43547280016355217, 0.45175170013681054, 0.4677490000613034, 0.48580630007199943, 0.5012289001606405, 0.5209837001748383, 0.534211500082165, 0.5533608000259846, 0.5694079999811947, 0.5854003999847919, 0.6026233001612127, 0.6189759999979287, 0.6345099001191556, 0.653372700093314, 0.6674897000193596, 0.6866709000896662, 0.7028348001185805, 0.7185884001664817, 0.7348649001214653, 0.752371700014919, 0.7682964000850916, 0.7861899000126868, 0.801913500064984, 0.818855500081554, 0.8344909001607448, 0.8520933000836521, 0.867906800005585, 0.8853007999714464, 0.9008114000316709, 0.9207822000607848, 0.934649100061506, 0.9529824000783265, 0.9683289001695812, 0.985631100134924, 1.00109690008685, 1.0182211000937968, 1.0349273001775146, 1.0529108000919223, 1.0681441000197083, 1.0854802001267672, 1.1021650000475347, 1.1189212000463158, 1.135238799965009, 1.1515944001730531, 1.1681610001251101, 1.1858137000817806, 1.2011291000526398, 1.2200472000986338, 1.2344673001207411, 1.2512177999597043, 1.2679111000616103, 1.2845399000216275, 1.3005078001879156, 1.3195283999666572]
testa;10;0;0;1;False;3000;True;;8;48.23174538113282;drag;L;4.818939;5.612647;49.35;7.4;1.4668525999877602;1.4669472998939455;1684835898.431195;1684835898.4363136;1684835899.191757;1684835899.6932685;1684835902.6901236;1684835904.1574495;[0.0, 0.0, 0.0, 0.0, 0.0, 0.0, 0.0, 0.0, 0.0, 0.0, 0.0, 0.0, 0.0, 0.0, 0.0, 0.0, 0.0, 0.0, 0.0, 0.0, 0.0, 0.0, 0.0, 0.0, 0.0, 0.0, 0.0, 0.0, 0.0, 0.0, 0.0, 0.0, 1.0771747, 1.8141888, 2.2960827, 2.66459, 3.0047503, 3.2031772, 3.4299507, 3.5433376, 3.6567245, 3.713418, 3.798458, 3.8268046, 3.996885, 4.081925, 4.2236586, 4.2803516, 4.3086987, 4.337045, 4.337045, 4.3937387, 4.422086, 4.4504323, 4.4504323, 4.478779, 4.5071254, 4.5354724, 4.563819, 4.5921655, 4.620512, 4.620512, 4.648859, 4.648859, 4.648859, 4.648859, 4.648859, 4.6772056, 4.6772056, 4.7055526, 4.733899, 4.762246, 4.762246, 4.7905927, 4.7905927, 4.818939, 4.818939, 4.818939, 4.818939, 4.818939, 4.818939, 4.818939, 4.818939, 4.818939, 4.818939, 4.818939, 4.818939, 4.818939];[0.0, 0.0, 0.0, 0.0, 0.0, 0.0, 0.0, 0.0, 0.0, 0.0, 0.0, 0.0, 0.0, 0.0, 0.0, 0.0, 0.0, 0.0, 0.0, 0.0, 0.0, 0.0, 0.0, 0.0, 0.0, 0.0, 0.0, 0.0, 0.0, 0.0, 0.0, 0.0, 1.3039483, 2.0409625, 2.4378164, 2.7212832, 2.948057, 3.0897903, 3.2315238, 3.316564, 3.3732576, 3.4299507, 3.4866443, 3.5716846, 3.770111, 3.911845, 4.081925, 4.166965, 4.2236586, 4.2803516, 4.3086987, 4.365392, 4.5071254, 4.620512, 4.733899, 4.7905927, 4.9039793, 5.017366, 5.1024065, 5.130753, 5.1874466, 5.215793, 5.2441397, 5.2441397, 5.2724867, 5.2724867, 5.300833, 5.32918, 5.3575263, 5.3858733, 5.4425664, 5.4709134, 5.4992604, 5.527607, 5.5843005, 5.5843005, 5.612647, 5.612647, 5.612647, 5.612647, 5.612647, 5.612647, 5.612647, 5.612647, 5.612647, 5.612647, 5.612647, 5.612647];[0.004161800025030971, 0.019089299952611327, 0.0361784000415355, 0.05238069989718497, 0.06951499986462295, 0.08522240002639592, 0.10308589995838702, 0.11808570008724928, 0.13506069988943636, 0.15256379987113178, 0.16849469998851418, 0.18665990000590682, 0.2030656998977065, 0.2180168000049889, 0.23624520003795624, 0.2524132998660207, 0.27003920008428395, 0.2843635999597609, 0.3025896998587996, 0.31771510001271963, 0.3348483999725431, 0.35196690005250275, 0.36950189992785454, 0.384834700031206, 0.4028934999369085, 0.41766709997318685, 0.4352344998624176, 0.45281490008346736, 0.4690922999288887, 0.4848388999234885, 0.5021794999483973, 0.5182129999157041, 0.5379306999966502, 0.5515342000871897, 0.5685278000310063, 0.5842871000058949, 0.601526299957186, 0.6185584000777453, 0.6356613000389189, 0.6511752000078559, 0.6698749999050051, 0.6852060998789966, 0.7026996000204235, 0.7181591999251395, 0.7354115999769419, 0.7518259000498801, 0.7697097999043763, 0.7832102000247687, 0.8032054998911917, 0.8193119000643492, 0.8367021000012755, 0.8504403000697494, 0.8698575999587774, 0.8840882999356836, 0.902991299983114, 0.9182062998879701, 0.9357330999337137, 0.9530575000680983, 0.9687552000395954, 0.9858194999396801, 1.001776000019163, 1.0176486999262124, 1.0364327998831868, 1.050657199928537, 1.069179599871859, 1.084644499933347, 1.1013547000475228, 1.117906600004062, 1.1350553999654949, 1.1521038999781013, 1.1700698998756707, 1.1833671000786126, 1.2024256000295281, 1.2176943998783827, 1.2354097999632359, 1.2513552999589592, 1.268807099899277, 1.2837886998895556, 1.302464900072664, 1.319270299980417, 1.3347876998595893, 1.3503357998561114, 1.367767799878493, 1.3834927000571042, 1.4009126999881119, 1.417545799864456, 1.435582600068301, 1.4515464999713004]
testa;11;0;0;1;False;1000;True;;8;-107.77649165599267;drag;L;-2.3244295;-7.483529;-107.26;7.84;1.317641600035131;1.3177716000936925;1684835904.9124749;1684835904.919025;1684835905.6744103;1684835906.1744142;1684835907.1555314;1684835908.4740074;[0.0, 0.0, 0.0, 0.0, 0.0, 0.0, 0.0, 0.0, 0.0, 0.0, 0.0, 0.0, 0.0, 0.0, 0.0, 0.0, 0.0, 0.0, 0.0, 0.0, 0.0, 0.0, 0.0, 0.0, 0.0, -0.1700802, -0.7086675, -1.332295, -1.7008021, -2.012616, -2.2677362, -2.3527763, -2.381123, -2.4094696, -2.466163, -2.4945097, -2.5228565, -2.57955, -2.6078966, -2.66459, -2.7212832, -2.7779768, -2.8063235, -2.83467, -2.83467, -2.83467, -2.83467, -2.83467, -2.83467, -2.83467, -2.83467, -2.83467, -2.8063235, -2.8063235, -2.7779768, -2.7496302, -2.7212832, -2.66459, -2.6078966, -2.5228565, -2.466163, -2.4378164, -2.4094696, -2.3527763, -2.3527763, -2.3244295, -2.3244295, -2.3244295, -2.3244295, -2.3244295, -2.3244295, -2.3244295, -2.3244295, -2.3244295, -2.3244295, -2.3244295, -2.3244295, -2.3244295, -2.3244295];[0.0, 0.0, 0.0, 0.0, 0.0, 0.0, 0.0, 0.0, 0.0, 0.0, 0.0, 0.0, 0.0, 0.0, 0.0, 0.0, 0.0, 0.0, 0.0, 0.0, 0.0, 0.0, 0.0, 0.0, 0.0, -0.73701423, -2.1543493, -3.514991, -4.1386185, -4.6772056, -5.0740595, -5.1874466, -5.300833, -5.3858733, -5.4425664, -5.4992604, -5.527607, -5.6409936, -5.7260337, -5.8394203, -5.924461, -6.037847, -6.094541, -6.1795807, -6.2079277, -6.321315, -6.434701, -6.548088, -6.7465153, -6.888248, -6.9732885, -7.143369, -7.2000623, -7.2567554, -7.313449, -7.341796, -7.341796, -7.341796, -7.3701425, -7.3701425, -7.3984895, -7.426836, -7.4551826, -7.4551826, -7.483529, -7.483529, -7.483529, -7.483529, -7.483529, -7.483529, -7.483529, -7.483529, -7.483529, -7.483529, -7.483529, -7.483529, -7.483529, -7.483529, -7.483529];[0.003653600113466382, 0.0185716999694705, 0.033135199919342995, 0.05070669995620847, 0.06761269993148744, 0.0867316999938339, 0.10268149990588427, 0.12042620009742677, 0.13553040008991957, 0.15318910009227693, 0.16862659994512796, 0.18473490001633763, 0.20029489998705685, 0.22057519992813468, 0.2335417999420315, 0.25143010006286204, 0.2685062000527978, 0.28504180000163615, 0.30119329993613064, 0.31851079990155995, 0.3346239000093192, 0.3516291999258101, 0.3671055999584496, 0.3850696999579668, 0.40072560007683933, 0.4177202999126166, 0.4346161999274045, 0.45144609990529716, 0.46714730001986027, 0.48417959990911186, 0.500488500110805, 0.5200795000419021, 0.5348678999580443, 0.5510825000237674, 0.5691156999673694, 0.584805800113827, 0.6016859000083059, 0.6207371999043971, 0.6351783000864089, 0.6543940999545157, 0.6692937999032438, 0.6851439999882132, 0.7025274001061916, 0.7192496999632567, 0.7353918999433517, 0.7549028000794351, 0.768435399979353, 0.7858818001113832, 0.8032639001030475, 0.8193153000902385, 0.8356578999664634, 0.852873400086537, 0.8698575000744313, 0.8866165999788791, 0.9009696999564767, 0.919274799991399, 0.9354147999547422, 0.9522579000331461, 0.9697531999554485, 0.9860098001081496, 1.0015139000024647, 1.0188859000336379, 1.0356503000948578, 1.05241660005413, 1.0708242000546306, 1.086327400058508, 1.1025002000387758, 1.1187273000832647, 1.134802300017327, 1.1510391000192612, 1.1696534999646246, 1.1873033000156283, 1.2021526000462472, 1.2203065000940114, 1.2352162001188844, 1.251655099913478, 1.2697527001146227, 1.2877945001237094, 1.3010398000478745]
testa;12;0;0;1;False;3000;True;;8;101.26557546578755;drag;L;-2.182696;7.143369;106.99;7.47;1.3666429000440985;1.3667421001009643;1684835909.1945164;1684835909.2019193;1684835909.9578288;1684835910.4592056;1684835913.4566371;1684835914.8238797;[0.0, 0.0, 0.0, 0.0, 0.0, 0.0, 0.0, 0.0, 0.0, 0.0, 0.0, 0.0, 0.0, 0.0, 0.0, 0.0, 0.0, 0.0, 0.0, 0.0, 0.0, 0.0, 0.0, 0.0, 0.0, 0.0, 0.0, 0.0, 0.0, 0.0, 0.0, 0.0, 0.0, -0.0566934, -0.3118137, -0.59528077, -0.93544114, -1.1338681, -1.2472548, -1.4456817, -1.5590686, -1.6724553, -1.7858423, -1.899229, -1.9275757, -2.012616, -2.0693092, -2.0976558, -2.1260026, -2.1260026, -2.1543493, -2.1543493, -2.1543493, -2.182696, -2.182696, -2.182696, -2.182696, -2.182696, -2.182696, -2.182696, -2.182696, -2.182696, -2.182696, -2.182696, -2.182696, -2.182696, -2.182696, -2.182696, -2.182696, -2.182696, -2.182696, -2.182696, -2.182696, -2.182696, -2.182696, -2.182696, -2.182696, -2.182696, -2.182696, -2.182696, -2.182696, -2.182696];[0.0, 0.0, 0.0, 0.0, 0.0, 0.0, 0.0, 0.0, 0.0, 0.0, 0.0, 0.0, 0.0, 0.0, 0.0, 0.0, 0.0, 0.0, 0.0, 0.0, 0.0, 0.0, 0.0, 0.0, 0.0, 0.0, 0.0, 0.0, 0.0, 0.0, 0.0, 0.0, 0.0, 0.36850712, 1.0488279, 1.7008021, 2.57955, 3.2315238, 3.8834982, 4.818939, 5.300833, 5.66934, 5.8677673, 6.1228876, 6.1795807, 6.3496614, 6.4630475, 6.491395, 6.5197415, 6.548088, 6.5764346, 6.5764346, 6.633128, 6.633128, 6.633128, 6.633128, 6.633128, 6.633128, 6.633128, 6.6614747, 6.6898212, 6.8032084, 6.8599014, 6.944942, 7.0016356, 7.0583286, 7.086675, 7.1150217, 7.143369, 7.143369, 7.143369, 7.143369, 7.143369, 7.143369, 7.143369, 7.143369, 7.143369, 7.143369, 7.143369, 7.143369, 7.143369, 7.143369];[0.004401899874210358, 0.01780569995753467, 0.0354464000556618, 0.05110480007715523, 0.06869930005632341, 0.08484170003794134, 0.10230919998139143, 0.11802219995297492, 0.13569139991886914, 0.1508440999314189, 0.16959990002214909, 0.1840882000979036, 0.20135129988193512, 0.21736099990084767, 0.23542480007745326, 0.2502745999954641, 0.26730780000798404, 0.28387059993110597, 0.3025793998967856, 0.3176988000050187, 0.33470189990475774, 0.3518509999848902, 0.3688205999787897, 0.3847089000046253, 0.40241770003922284, 0.41773009998723865, 0.4357054999563843, 0.4516835999675095, 0.46805169992148876, 0.4839892000891268, 0.5018964998889714, 0.5170587999746203, 0.5359364999458194, 0.5522521999664605, 0.5678504998795688, 0.5841810998972505, 0.6019538000691682, 0.6186126999091357, 0.6354360999539495, 0.6496466000098735, 0.6674134000204504, 0.6854039998725057, 0.7013592999428511, 0.7206218999344856, 0.7336565000005066, 0.7494256000500172, 0.7689338000491261, 0.7834371000062674, 0.8016003998927772, 0.8165482999756932, 0.833001899998635, 0.8505980998743325, 0.8681101000402123, 0.8832328000571579, 0.902257600100711, 0.9167901000473648, 0.9332689999137074, 0.9509807999711484, 0.9668860000092536, 0.9837970999069512, 1.0014967999886721, 1.0165881998836994, 1.0353498999029398, 1.050644800066948, 1.0681896000169218, 1.0825336000416428, 1.100112000014633, 1.1169870998710394, 1.1339316999074072, 1.150257600005716, 1.1683163999114186, 1.1829709999728948, 1.1996732999105006, 1.2165705000516027, 1.2345690000802279, 1.249866700032726, 1.2670344999060035, 1.2846295998897403, 1.302157700061798, 1.3165074000135064, 1.3340998000930995, 1.3509132999461144]
testa;13;0;0;1;False;1000;True;;8;151.00131856640792;drag;L;-6.5764346;3.6850712;150.74;7.54;1.5174302000086755;1.5175543001387268;1684835915.681447;1684835915.6849353;1684835916.4392366;1684835916.941082;1684835917.9217765;1684835919.4386542;[0.0, 0.0, 0.0, 0.0, 0.0, 0.0, 0.0, 0.0, 0.0, 0.0, 0.0, 0.0, 0.0, 0.0, 0.0, 0.0, 0.0, 0.0, 0.0, 0.0, 0.0, 0.0, 0.0, 0.0, 0.0, 0.0, 0.0, 0.0, 0.0, 0.0, 0.0, -0.14173351, -2.2677362, -3.968538, -4.733899, -5.6409936, -5.981154, -6.1795807, -6.2362742, -6.292968, -6.321315, -6.321315, -6.321315, -6.321315, -6.321315, -6.321315, -6.321315, -6.321315, -6.321315, -6.321315, -6.321315, -6.321315, -6.321315, -6.321315, -6.321315, -6.321315, -6.321315, -6.4063544, -6.491395, -6.5197415, -6.548088, -6.548088, -6.548088, -6.548088, -6.548088, -6.548088, -6.548088, -6.548088, -6.548088, -6.548088, -6.548088, -6.548088, -6.548088, -6.548088, -6.548088, -6.548088, -6.548088, -6.548088, -6.548088, -6.5764346, -6.5764346, -6.5764346, -6.5764346, -6.5764346, -6.5764346, -6.5764346, -6.5764346, -6.5764346, -6.5764346, -6.5764346, -6.5764346];[0.0, 0.0, 0.0, 0.0, 0.0, 0.0, 0.0, 0.0, 0.0, 0.0, 0.0, 0.0, 0.0, 0.0, 0.0, 0.0, 0.0, 0.0, 0.0, 0.0, 0.0, 0.0, 0.0, 0.0, 0.0, 0.0, 0.0, 0.0, 0.0, 0.0, 0.0, -0.0566934, 0.36850712, 1.1338681, 1.4740285, 1.9275757, 2.0693092, 2.1543493, 2.182696, 2.211043, 2.2393894, 2.2393894, 2.2393894, 2.2393894, 2.2393894, 2.2393894, 2.2393894, 2.2393894, 2.2393894, 2.2393894, 2.2393894, 2.2393894, 2.2393894, 2.2393894, 2.2393894, 2.2393894, 2.2393894, 2.4094696, 2.57955, 2.7212832, 2.7496302, 2.83467, 2.8913634, 2.948057, 3.0047503, 3.0614438, 3.0897903, 3.1181371, 3.146484, 3.1748307, 3.2598708, 3.3732576, 3.514991, 3.5716846, 3.6000311, 3.6567245, 3.6567245, 3.6850712, 3.6850712, 3.6850712, 3.6850712, 3.6850712, 3.6850712, 3.6850712, 3.6850712, 3.6850712, 3.6850712, 3.6850712, 3.6850712, 3.6850712, 3.6850712];[0.004293700214475393, 0.019274300197139382, 0.035024400101974607, 0.051874500000849366, 0.06834850017912686, 0.08497419999912381, 0.10108100017532706, 0.11912839999422431, 0.13547430001199245, 0.15216010017320514, 0.16837080009281635, 0.18803040008060634, 0.20142420008778572, 0.21897820010781288, 0.23560710018500686, 0.252040000166744, 0.2681265000719577, 0.28521860018372536, 0.3035422000102699, 0.32044510007835925, 0.3354053001385182, 0.35423910012468696, 0.36899080011062324, 0.3867318001575768, 0.4034865000285208, 0.4215324001852423, 0.43605960020795465, 0.4531912000384182, 0.4686443000100553, 0.4875692001078278, 0.5027683000080287, 0.5209523001685739, 0.5374046000652015, 0.5526242000050843, 0.56934650009498, 0.586799600161612, 0.6019061000552028, 0.6222576000727713, 0.6349204001016915, 0.6539404999930412, 0.6679498001467437, 0.6863340002018958, 0.7027467000298202, 0.720725400140509, 0.73680549999699, 0.7537514001596719, 0.7683098001871258, 0.7861855002120137, 0.8013785001821816, 0.8196503000799567, 0.8358190001454204, 0.852347900159657, 0.868535100016743, 0.8870968001428992, 0.9031995001714677, 0.9195479000918567, 0.9360106000676751, 0.9527170001529157, 0.9700705001596361, 0.9860168001614511, 1.0025520999915898, 1.021922100102529, 1.0351172999944538, 1.054644800024107, 1.0698810000903904, 1.0867121000774205, 1.1024655001237988, 1.1189017000142485, 1.135311100166291, 1.1548323000315577, 1.1686197000090033, 1.1878993001300842, 1.2040295000188053, 1.2187813001219183, 1.2360831000842154, 1.2537522001657635, 1.2677292001899332, 1.2851265000645071, 1.300915400031954, 1.3197984001599252, 1.3360127999912947, 1.3532871000934392, 1.3692805001046509, 1.3866030001081526, 1.4030110000167042, 1.4202669002115726, 1.4354346001055092, 1.4518991000950336, 1.4681381999980658, 1.4850773999933153, 1.5024655000306666]
testa;14;0;0;1;False;3000;True;;8;-136.62607724972588;drag;L;-4.5921655;-5.41422;-130.3;7.1;1.2844308998901397;1.2845211999956518;1684835920.1731665;1684835920.1853828;1684835920.9408898;1684835921.4400802;1684835924.4385657;1684835925.7234268;[0.0, 0.0, 0.0, 0.0, 0.0, 0.0, 0.0, 0.0, 0.0, 0.0, 0.0, 0.0, 0.0, 0.0, 0.0, 0.0, 0.0, 0.0, 0.0, 0.0, 0.0, 0.0, 0.0, 0.0, 0.0, -0.8220543, -2.0693092, -2.6362433, -3.2315238, -3.4582977, -3.6000311, -3.713418, -3.7417645, -3.798458, -3.798458, -3.798458, -3.798458, -3.798458, -3.798458, -3.798458, -3.798458, -3.798458, -3.8268046, -3.8268046, -3.8834982, -3.9401915, -4.025232, -4.110272, -4.166965, -4.1953115, -4.252005, -4.252005, -4.2803516, -4.2803516, -4.2803516, -4.3086987, -4.337045, -4.337045, -4.365392, -4.3937387, -4.478779, -4.478779, -4.5071254, -4.5354724, -4.563819, -4.563819, -4.5921655, -4.5921655, -4.5921655, -4.5921655, -4.5921655, -4.5921655, -4.5921655, -4.5921655, -4.5921655, -4.5921655, -4.5921655];[0.0, 0.0, 0.0, 0.0, 0.0, 0.0, 0.0, 0.0, 0.0, 0.0, 0.0, 0.0, 0.0, 0.0, 0.0, 0.0, 0.0, 0.0, 0.0, 0.0, 0.0, 0.0, 0.0, 0.0, 0.0, -1.5590686, -2.9764037, -3.514991, -3.968538, -4.1386185, -4.2236586, -4.337045, -4.365392, -4.422086, -4.4504323, -4.478779, -4.5071254, -4.5354724, -4.620512, -4.7055526, -4.762246, -4.818939, -4.875633, -4.932326, -4.9890194, -5.0740595, -5.1874466, -5.2724867, -5.3575263, -5.3858733, -5.41422, -5.41422, -5.4425664, -5.4425664, -5.4425664, -5.4425664, -5.4425664, -5.4425664, -5.4425664, -5.4425664, -5.4425664, -5.4425664, -5.4425664, -5.4425664, -5.4425664, -5.4425664, -5.41422, -5.41422, -5.41422, -5.41422, -5.41422, -5.41422, -5.41422, -5.41422, -5.41422, -5.41422, -5.41422];[0.004337599966675043, 0.01722360006533563, 0.0352203999646008, 0.05121139995753765, 0.06795930000953376, 0.08425690000876784, 0.1006489999126643, 0.11745960009284317, 0.1348818999249488, 0.15111840004101396, 0.16805070010013878, 0.18636819999665022, 0.2013483999762684, 0.21804720000363886, 0.23722150013782084, 0.25218140007928014, 0.269912299932912, 0.28456160007044673, 0.30223249993287027, 0.3182063000276685, 0.33607620000839233, 0.3518791999667883, 0.37143950001336634, 0.38566290005110204, 0.40294179995544255, 0.4195606999564916, 0.43568850005976856, 0.45100270002149045, 0.4706478000152856, 0.4838511999696493, 0.5041563000995666, 0.5188909999560565, 0.5356749999336898, 0.5511793999467045, 0.5706953001208603, 0.5846184000838548, 0.6036136001348495, 0.6167433001101017, 0.6354270000010729, 0.6518846999388188, 0.6692753001116216, 0.6859554999973625, 0.7018905999138951, 0.7161680001299828, 0.735589100047946, 0.7495780999306589, 0.7668419000692666, 0.7837741000112146, 0.8013814000878483, 0.8183748000301421, 0.8353367000818253, 0.8511971000116318, 0.8710517000872642, 0.8841552000958472, 0.9039402001071721, 0.9189848001115024, 0.935507700080052, 0.9527827000711113, 0.9697968999389559, 0.9835953000001609, 1.0039244999643415, 1.0180133001413196, 1.0371300999540836, 1.0513399001210928, 1.0693975000176579, 1.0856453001033515, 1.1018843001220375, 1.1175665999762714, 1.1358195000793785, 1.1518459999933839, 1.1693901000544429, 1.1856059001293033, 1.2026394999120384, 1.2190920999273658, 1.2363915001042187, 1.2514184000901878, 1.2713005999103189]
testa;15;0;0;1;False;1000;True;;8;-151.602862023249;drag;L;-6.6898212;-4.762246;-144.55;8.21;1.1846687998622656;1.1847861998248845;1684835926.5425863;1684835926.55137;1684835927.3067818;1684835927.8071704;1684835928.7893858;1684835929.9737175;[0.0, 0.0, 0.0, 0.0, 0.0, 0.0, 0.0, 0.0, 0.0, 0.0, 0.0, 0.0, 0.0, 0.0, 0.0, 0.0, 0.0, 0.0, 0.0, 0.0, 0.0, 0.0, 0.0, 0.0, 0.0, 0.0, 0.0, -2.182696, -3.146484, -4.1953115, -4.6772056, -4.9039793, -5.045713, -5.1024065, -5.130753, -5.1591, -5.1591, -5.215793, -5.215793, -5.2441397, -5.2724867, -5.3575263, -5.4425664, -5.5843005, -5.612647, -5.66934, -5.7260337, -5.8677673, -5.981154, -6.151234, -6.292968, -6.3496614, -6.378008, -6.4630475, -6.491395, -6.5764346, -6.6047816, -6.633128, -6.633128, -6.6898212, -6.6898212, -6.6898212, -6.6898212, -6.6898212, -6.6898212, -6.6898212, -6.6898212, -6.6898212, -6.6898212, -6.6898212, -6.6898212];[0.0, 0.0, 0.0, 0.0, 0.0, 0.0, 0.0, 0.0, 0.0, 0.0, 0.0, 0.0, 0.0, 0.0, 0.0, 0.0, 0.0, 0.0, 0.0, 0.0, 0.0, 0.0, 0.0, 0.0, 0.0, 0.0, 0.0, -2.2677362, -2.7496302, -3.1748307, -3.3732576, -3.4866443, -3.5716846, -3.6000311, -3.6000311, -3.6000311, -3.6000311, -3.6000311, -3.6283777, -3.6283777, -3.6567245, -3.7417645, -3.798458, -3.8551514, -3.911845, -3.9401915, -3.996885, -4.1386185, -4.252005, -4.337045, -4.422086, -4.478779, -4.478779, -4.5354724, -4.5921655, -4.648859, -4.7055526, -4.733899, -4.733899, -4.762246, -4.762246, -4.762246, -4.762246, -4.762246, -4.762246, -4.762246, -4.762246, -4.762246, -4.762246, -4.762246, -4.762246];[0.004129899898543954, 0.01868300000205636, 0.03502039983868599, 0.052358799846842885, 0.06808889983221889, 0.08589700004085898, 0.10096359997987747, 0.1186287000309676, 0.13443410000763834, 0.15200360002927482, 0.16701769991777837, 0.18493069987744093, 0.20019949995912611, 0.21868279995396733, 0.2347915000282228, 0.2524470000062138, 0.2668234999291599, 0.283377300016582, 0.3010297999717295, 0.3186464000027627, 0.33432649984024465, 0.35125710000284016, 0.36707599996589124, 0.3852826999500394, 0.40056469989940524, 0.41871279990300536, 0.4350829999893904, 0.45159289985895157, 0.46878689993172884, 0.48559719999320805, 0.5006505998317152, 0.5186752998270094, 0.5346291998866946, 0.551352399867028, 0.5671490000095218, 0.5836733998730779, 0.6001873000059277, 0.6185713999439031, 0.6341530999634415, 0.6518431999720633, 0.6667790999636054, 0.6836906999815255, 0.7015656000003219, 0.7180484998971224, 0.735348999965936, 0.7521806999575347, 0.7670896998606622, 0.7868192999158055, 0.8005913000088185, 0.818512599915266, 0.8362091998569667, 0.8512937000487, 0.8676789000164717, 0.8850827000569552, 0.900239999871701, 0.9196176000405103, 0.9343288999516517, 0.9528516998980194, 0.9686163999140263, 0.9842655998654664, 1.0014899999368936, 1.0185054999310523, 1.035161899868399, 1.0513412998989224, 1.0683806999586523, 1.0847336000297219, 1.1014765999279916, 1.118795800022781, 1.1347564000170678, 1.152546999976039, 1.167214300017804]
testa;16;0;0;1;False;1000;True;;8;166.33330033552022;drag;L;-7.1150217;2.3527763;161.7;7.49;1.2659798001404852;1.2661027999129146;1684835930.7356484;1684835930.7519305;1684835931.5050242;1684835932.006403;1684835932.9894512;1684835934.2552378;[0.0, 0.0, 0.0, 0.0, 0.0, 0.0, 0.0, 0.0, 0.0, 0.0, 0.0, 0.0, 0.0, 0.0, 0.0, 0.0, 0.0, 0.0, 0.0, 0.0, 0.0, 0.0, 0.0, 0.0, -2.211043, -3.5433376, -4.5354724, -5.2724867, -5.527607, -5.66934, -5.75438, -5.811074, -5.896114, -6.0095005, -6.037847, -6.094541, -6.094541, -6.1228876, -6.2079277, -6.321315, -6.434701, -6.5764346, -6.6047816, -6.6614747, -6.6898212, -6.7181687, -6.7181687, -6.7465153, -6.7465153, -6.7465153, -6.7465153, -6.8032084, -6.831555, -6.9165955, -6.9732885, -7.0016356, -7.0583286, -7.086675, -7.086675, -7.1150217, -7.1150217, -7.1150217, -7.1150217, -7.1150217, -7.1150217, -7.1150217, -7.1150217, -7.1150217, -7.1150217, -7.1150217, -7.1150217, -7.1150217, -7.1150217, -7.1150217, -7.1150217];[0.0, 0.0, 0.0, 0.0, 0.0, 0.0, 0.0, 0.0, 0.0, 0.0, 0.0, 0.0, 0.0, 0.0, 0.0, 0.0, 0.0, 0.0, 0.0, 0.0, 0.0, 0.0, 0.0, 0.0, 0.1700802, 0.19842692, 0.2551203, 0.2551203, 0.2551203, 0.3401604, 0.36850712, 0.4535472, 0.53858733, 0.65197414, 0.6803208, 0.73701423, 0.73701423, 0.79370767, 0.87874776, 0.96378785, 1.0488279, 1.1338681, 1.1622148, 1.2189082, 1.332295, 1.4456817, 1.5307219, 1.5874153, 1.6157619, 1.6441087, 1.6724553, 1.7574955, 1.8141888, 1.984269, 2.0693092, 2.1543493, 2.182696, 2.2393894, 2.2677362, 2.3244295, 2.3244295, 2.3527763, 2.3527763, 2.3527763, 2.3527763, 2.3527763, 2.3527763, 2.3527763, 2.3527763, 2.3527763, 2.3527763, 2.3527763, 2.3527763, 2.3527763, 2.3527763];[0.004277699859812856, 0.018638900015503168, 0.03462970000691712, 0.050978099927306175, 0.06627249997109175, 0.08387849992141128, 0.10062019992619753, 0.11784780002199113, 0.1345663999672979, 0.15131789981387556, 0.1664690999314189, 0.1895118998363614, 0.21401140000671148, 0.23657069983892143, 0.25168360001407564, 0.2685940000228584, 0.2836809998843819, 0.3020416998770088, 0.31821119994856417, 0.33549749990925193, 0.3514260998927057, 0.36891520000062883, 0.3830667999573052, 0.40217709983699024, 0.41813309979625046, 0.4353094999678433, 0.4505630999337882, 0.46812279988080263, 0.4821221998427063, 0.5024915998801589, 0.5173714000266045, 0.5366530998144299, 0.5505305000115186, 0.5669075998011976, 0.5836314999032766, 0.601578899892047, 0.6167194999288768, 0.636582899838686, 0.6502659998368472, 0.6677361999172717, 0.6837284998036921, 0.7009484998416156, 0.7190808998420835, 0.73468629992567, 0.7494142998475581, 0.7702728000003844, 0.784173599909991, 0.8012559998314828, 0.8192145999055356, 0.8337383000180125, 0.8504478998947889, 0.8684586000163108, 0.884277599863708, 0.9027915999758989, 0.9168358999304473, 0.9339883998036385, 0.9512979998253286, 0.9670201998669654, 0.9834989998489618, 1.0016580999363214, 1.0164661000017077, 1.0365416000131518, 1.0495082999113947, 1.0688882998656482, 1.0847485000267625, 1.1025232998654246, 1.1176877999678254, 1.1345877998974174, 1.1502886998932809, 1.1678536999970675, 1.1840208999346942, 1.201264999806881, 1.2174521998967975, 1.2331981998868287, 1.2503225998952985]
testa;17;0;0;1;False;3000;True;;8;-73.86446993006433;drag;L;1.6441087;-7.0016356;-76.79;7.19;1.2808829001151025;1.2810060000047088;1684835935.101653;1684835935.1177518;1684835935.8736517;1684835936.3736305;1684835939.372677;1684835940.654172;[0.0, 0.0, 0.0, 0.0, 0.0, 0.0, 0.0, 0.0, 0.0, 0.0, 0.0, 0.0, 0.0, 0.0, 0.0, 0.0, 0.0, 0.0, 0.0, 0.0, 0.0, 0.0, 0.0, 0.0, 0.0, 0.0, 0.0, 0.0, 0.59528077, 0.85040104, 0.93544114, 1.0204812, 1.0204812, 1.0771747, 1.1055214, 1.1338681, 1.1622148, 1.1622148, 1.2189082, 1.2472548, 1.2756016, 1.417335, 1.5307219, 1.6157619, 1.6724553, 1.7008021, 1.7291489, 1.7291489, 1.7291489, 1.7291489, 1.7291489, 1.7291489, 1.7291489, 1.7291489, 1.7291489, 1.7291489, 1.7008021, 1.7008021, 1.7008021, 1.7008021, 1.7008021, 1.6724553, 1.6724553, 1.6724553, 1.6724553, 1.6724553, 1.6441087, 1.6441087, 1.6441087, 1.6441087, 1.6441087, 1.6441087, 1.6441087, 1.6441087, 1.6441087, 1.6441087, 1.6441087];[0.0, 0.0, 0.0, 0.0, 0.0, 0.0, 0.0, 0.0, 0.0, 0.0, 0.0, 0.0, 0.0, 0.0, 0.0, 0.0, 0.0, 0.0, 0.0, 0.0, 0.0, 0.0, 0.0, 0.0, 0.0, 0.0, 0.0, 0.0, -2.182696, -3.1748307, -3.514991, -3.6850712, -3.8268046, -4.0535784, -4.1953115, -4.337045, -4.4504323, -4.563819, -4.7905927, -4.9890194, -5.1874466, -5.612647, -5.924461, -6.2079277, -6.378008, -6.4630475, -6.491395, -6.548088, -6.5764346, -6.6047816, -6.633128, -6.6614747, -6.7181687, -6.774862, -6.8032084, -6.8599014, -6.9165955, -6.944942, -6.9732885, -6.9732885, -7.0016356, -7.0016356, -7.0016356, -7.0016356, -7.0016356, -7.0016356, -7.0016356, -7.0016356, -7.0016356, -7.0016356, -7.0016356, -7.0016356, -7.0016356, -7.0016356, -7.0016356, -7.0016356, -7.0016356];[0.0037809000350534916, 0.01757470006123185, 0.03463890007697046, 0.04999480000697076, 0.0682699999306351, 0.0835971999913454, 0.10100120003335178, 0.11688750004395843, 0.13478690013289452, 0.15015340014360845, 0.16789319994859397, 0.18232599995099008, 0.19919540011323988, 0.21677540009841323, 0.2347488000523299, 0.24960710015147924, 0.2662079001311213, 0.2831524000503123, 0.3007589001208544, 0.31624180008657277, 0.3325908000115305, 0.35105359996668994, 0.3666403000243008, 0.38215159997344017, 0.39994990010745823, 0.41708509996533394, 0.4353682000655681, 0.44897230016067624, 0.46685680001974106, 0.4853948000818491, 0.5004275999963284, 0.5165957000572234, 0.5333490001503378, 0.5498895000200719, 0.5706340000033379, 0.5839116000570357, 0.6009418000467122, 0.6164033999666572, 0.6322623000014573, 0.6486226001288742, 0.6660815000068396, 0.6820942000485957, 0.6997213000431657, 0.7157978001050651, 0.7335994001477957, 0.7511754999868572, 0.7668081999290735, 0.7837519000750035, 0.8015050000976771, 0.8156037000007927, 0.8343978000339121, 0.8496827001217753, 0.8675023000687361, 0.8853672000113875, 0.9006026000715792, 0.9152608001604676, 0.9336761001031846, 0.9495056001469493, 0.9674957001116127, 0.9828823001589626, 1.000270799966529, 1.0164296000730246, 1.0325673001352698, 1.0482016999740154, 1.066455400083214, 1.0827327000442892, 1.1005858001299202, 1.1166431000456214, 1.1338132999371737, 1.1493685999885201, 1.1686508001293987, 1.182954499963671, 1.2013435000553727, 1.2164129000157118, 1.2340971000958234, 1.2491606001276523, 1.2678867999929935]
testa;18;0;0;1;False;3000;True;;8;-52.40540447957471;drag;L;4.818939;-5.896114;-50.74;7.61;1.648716599913314;1.6488092001527548;1684835941.504719;1684835941.5173414;1684835942.2723236;1684835942.7718074;1684835945.7716982;1684835947.4207187;[0.0, 0.0, 0.0, 0.0, 0.0, 0.0, 0.0, 0.0, 0.0, 0.0, 0.0, 0.0, 0.0, 0.0, 0.0, 0.0, 0.0, 0.0, 0.0, 0.0, 0.0, 0.0, 0.0, 0.0, 0.0, 0.0, 0.0, 0.0, 0.0, 0.5102406, 1.6724553, 2.5228565, 3.1748307, 3.3732576, 3.713418, 3.8551514, 3.9401915, 4.025232, 4.0535784, 4.081925, 4.110272, 4.1386185, 4.1386185, 4.166965, 4.1953115, 4.1953115, 4.2236586, 4.2803516, 4.2803516, 4.337045, 4.337045, 4.2803516, 4.1953115, 4.1953115, 4.1386185, 4.1386185, 4.1386185, 4.1386185, 4.1386185, 4.1386185, 4.1386185, 4.1386185, 4.1386185, 4.166965, 4.2236586, 4.252005, 4.252005, 4.2803516, 4.2803516, 4.3086987, 4.337045, 4.337045, 4.337045, 4.337045, 4.337045, 4.365392, 4.3937387, 4.4504323, 4.5921655, 4.648859, 4.7055526, 4.762246, 4.7905927, 4.7905927, 4.818939, 4.818939, 4.818939, 4.818939, 4.818939, 4.818939, 4.818939, 4.818939, 4.818939, 4.818939, 4.818939, 4.818939, 4.818939, 4.818939, 4.818939];[0.0, 0.0, 0.0, 0.0, 0.0, 0.0, 0.0, 0.0, 0.0, 0.0, 0.0, 0.0, 0.0, 0.0, 0.0, 0.0, 0.0, 0.0, 0.0, 0.0, 0.0, 0.0, 0.0, 0.0, 0.0, 0.0, 0.0, 0.0, 0.0, -0.59528077, -1.6724553, -2.4094696, -3.0330973, -3.2598708, -3.7417645, -3.911845, -4.081925, -4.252005, -4.337045, -4.3937387, -4.422086, -4.478779, -4.5071254, -4.5354724, -4.5354724, -4.563819, -4.620512, -4.6772056, -4.762246, -4.932326, -5.130753, -5.41422, -5.8677673, -6.0661945, -6.2362742, -6.292968, -6.378008, -6.378008, -6.434701, -6.434701, -6.434701, -6.434701, -6.434701, -6.4063544, -6.378008, -6.3496614, -6.321315, -6.292968, -6.292968, -6.292968, -6.292968, -6.292968, -6.292968, -6.292968, -6.264621, -6.264621, -6.2362742, -6.1795807, -6.094541, -6.0661945, -6.0095005, -6.0095005, -5.981154, -5.981154, -5.9528074, -5.9528074, -5.924461, -5.896114, -5.896114, -5.896114, -5.896114, -5.896114, -5.896114, -5.896114, -5.896114, -5.896114, -5.896114, -5.896114, -5.896114];[0.003769900184124708, 0.018192100105807185, 0.03587740007787943, 0.05087690008804202, 0.06870219996199012, 0.08446469996124506, 0.10072950017638505, 0.1167717999778688, 0.13343439996242523, 0.14864080003462732, 0.16758899996057153, 0.18276670016348362, 0.19998000003397465, 0.2186857999768108, 0.23292040009982884, 0.24989089998416603, 0.26705570006743073, 0.2826450001448393, 0.2998111001215875, 0.31616150005720556, 0.33333040005527437, 0.3497831001877785, 0.36581570003181696, 0.3825974001083523, 0.4009369001723826, 0.416779899969697, 0.43431050004437566, 0.45018870010972023, 0.46708790003322065, 0.484526599990204, 0.5005079000256956, 0.5163671001791954, 0.5362112000584602, 0.5487939000595361, 0.5665569000411779, 0.5834252000786364, 0.5992745000403374, 0.6164826999884099, 0.6350302000064403, 0.6504504000768065, 0.6680453000590205, 0.6833941000513732, 0.7022893000394106, 0.720531800063327, 0.7330770001281053, 0.751224200008437, 0.7688643001019955, 0.7843880001455545, 0.8026682999916375, 0.8179821001831442, 0.8340984000824392, 0.850734299980104, 0.8676165000069886, 0.8828235999681056, 0.9023985001258552, 0.9169638000894338, 0.9366240999661386, 0.9507182000670582, 0.9698336001019925, 0.9838909001555294, 1.0012517001014203, 1.0178756001405418, 1.0344324000179768, 1.0513373001012951, 1.0711835001129657, 1.0848513001110405, 1.1014503999613225, 1.1188732001464814, 1.1340324999764562, 1.1515165001619607, 1.1685385999735445, 1.1850262000225484, 1.202191699994728, 1.2165492000058293, 1.2330885000992566, 1.250726800179109, 1.266640900168568, 1.28397690015845, 1.3032841000240296, 1.3171620999928564, 1.3361176000908017, 1.350362100172788, 1.3676801000256091, 1.3844259001780301, 1.401088200043887, 1.4170954001601785, 1.436873200116679, 1.4493429001886398, 1.4687038001138717, 1.4839258000720292, 1.5028517001774162, 1.5172594001051039, 1.5350126000121236, 1.5511290000285953, 1.5681416001170874, 1.5841761000920087, 1.6029394001234323, 1.6173479000572115, 1.6353935999795794]
testa;19;0;0;1;False;1000;True;;8;111.59811375506116;drag;L;-3.1748307;6.633128;115.58;7.35;1.2670145998708904;1.2670521999243647;1684835948.1223714;1684835948.1340756;1684835948.8876917;1684835949.389514;1684835950.3688133;1684835951.6358247;[0.0, 0.0, 0.0, 0.0, 0.0, 0.0, 0.0, 0.0, 0.0, 0.0, 0.0, 0.0, 0.0, 0.0, 0.0, 0.0, 0.0, 0.0, 0.0, 0.0, 0.0, 0.0, 0.0, 0.0, 0.0, 0.0, 0.0, -1.0771747, -2.1260026, -2.466163, -2.7496302, -2.7779768, -2.83467, -2.8630168, -2.8913634, -2.8913634, -2.948057, -3.0047503, -3.2031772, -3.3449106, -3.4866443, -3.5716846, -3.6283777, -3.6283777, -3.6567245, -3.6567245, -3.6567245, -3.6567245, -3.6567245, -3.6567245, -3.6283777, -3.5716846, -3.5433376, -3.514991, -3.4866443, -3.4299507, -3.4299507, -3.3449106, -3.2882173, -3.2598708, -3.2315238, -3.2315238, -3.2031772, -3.1748307, -3.1748307, -3.1748307, -3.1748307, -3.1748307, -3.1748307, -3.1748307, -3.1748307, -3.1748307, -3.1748307, -3.1748307, -3.1748307, -3.1748307];[0.0, 0.0, 0.0, 0.0, 0.0, 0.0, 0.0, 0.0, 0.0, 0.0, 0.0, 0.0, 0.0, 0.0, 0.0, 0.0, 0.0, 0.0, 0.0, 0.0, 0.0, 0.0, 0.0, 0.0, 0.0, 0.0, 0.0, 1.332295, 2.8063235, 3.4016042, 3.968538, 4.081925, 4.166965, 4.2236586, 4.252005, 4.2803516, 4.365392, 4.5071254, 4.960673, 5.3858733, 5.7260337, 6.037847, 6.151234, 6.2079277, 6.264621, 6.264621, 6.292968, 6.321315, 6.321315, 6.3496614, 6.378008, 6.434701, 6.4630475, 6.491395, 6.5197415, 6.548088, 6.5764346, 6.6047816, 6.633128, 6.633128, 6.633128, 6.633128, 6.633128, 6.633128, 6.633128, 6.633128, 6.633128, 6.633128, 6.633128, 6.633128, 6.633128, 6.633128, 6.633128, 6.633128, 6.633128, 6.633128];[0.003795500146225095, 0.018572899978607893, 0.03482870012521744, 0.051554000005126, 0.0679967999458313, 0.0850774000864476, 0.10221579996868968, 0.11883080005645752, 0.1346521999221295, 0.15245530009269714, 0.16864489996805787, 0.18634589994326234, 0.2012583001051098, 0.21844949992373586, 0.2350791001226753, 0.251791900023818, 0.26838940009474754, 0.28522630012594163, 0.30154619994573295, 0.31899049994535744, 0.33498809998854995, 0.35400229995138943, 0.3681332999840379, 0.38530550012364984, 0.40203820005990565, 0.41877290001139045, 0.4347848000470549, 0.45282409992069006, 0.46811849996447563, 0.4856871000956744, 0.5018239000346512, 0.5191099001094699, 0.5346743001136929, 0.552343999966979, 0.5680607000831515, 0.5856427999678999, 0.6021340999286622, 0.6186955999583006, 0.6350072999484837, 0.6531500001437962, 0.6685226000845432, 0.6854677000083029, 0.7022633999586105, 0.7191989999264479, 0.7345156001392752, 0.7519805000629276, 0.7687146000098437, 0.7853015000000596, 0.801465000025928, 0.8192746001295745, 0.8347460001241416, 0.8523761001415551, 0.8679424000438303, 0.8850748999975622, 0.9014812000095844, 0.9189905999228358, 0.9344502999447286, 0.9519424000754952, 0.9698059000074863, 0.9868111999239773, 1.0021842999849468, 1.0191856001038104, 1.0355243999511003, 1.0525090999435633, 1.0686089999508113, 1.086372199933976, 1.1017857000697404, 1.1186206000857055, 1.1343888000119478, 1.151805399917066, 1.1680662999860942, 1.185117700137198, 1.2012606000062078, 1.2188077999744564, 1.234259800054133, 1.2520820000208914]
testa;20;0;0;1;False;1000;True;;8;99.18771073336404;drag;L;-1.4456817;7.1150217;101.49;7.26;1.2975886000785977;1.2976907000411302;1684835952.4201057;1684835952.432714;1684835953.1888192;1684835953.689422;1684835954.6707668;1684835955.9693003;[0.0, 0.0, 0.0, 0.0, 0.0, 0.0, 0.0, 0.0, 0.0, 0.0, 0.0, 0.0, 0.0, 0.0, 0.0, 0.0, 0.0, 0.0, 0.0, 0.0, 0.0, 0.0, 0.0, 0.0, 0.0, 0.0, 0.0, 0.0, -0.0283467, -0.2551203, -0.3401604, -0.39685383, -0.4535472, -0.56693405, -0.59528077, -0.6236274, -0.65197414, -0.65197414, -0.6803208, -0.7086675, -0.73701423, -0.76536095, -0.85040104, -0.87874776, -0.87874776, -0.9070944, -0.9070944, -0.9070944, -0.93544114, -0.9921345, -1.0204812, -1.0488279, -1.1055214, -1.1905615, -1.2756016, -1.332295, -1.332295, -1.3606416, -1.3606416, -1.3889884, -1.417335, -1.417335, -1.4456817, -1.4456817, -1.4456817, -1.4456817, -1.4456817, -1.4456817, -1.4456817, -1.4456817, -1.4456817, -1.4456817, -1.4456817, -1.4456817, -1.4456817, -1.4456817, -1.4456817, -1.4456817];[0.0, 0.0, 0.0, 0.0, 0.0, 0.0, 0.0, 0.0, 0.0, 0.0, 0.0, 0.0, 0.0, 0.0, 0.0, 0.0, 0.0, 0.0, 0.0, 0.0, 0.0, 0.0, 0.0, 0.0, 0.0, 0.0, 0.0, 0.0, 0.36850712, 1.5590686, 2.9197102, 4.110272, 4.5921655, 5.017366, 5.1591, 5.2724867, 5.32918, 5.3575263, 5.3858733, 5.4709134, 5.6409936, 5.8394203, 6.1228876, 6.2079277, 6.2362742, 6.264621, 6.292968, 6.321315, 6.321315, 6.378008, 6.4063544, 6.434701, 6.5197415, 6.6898212, 6.8032084, 6.9165955, 6.9732885, 7.0016356, 7.029982, 7.029982, 7.0583286, 7.0583286, 7.1150217, 7.1150217, 7.1150217, 7.1150217, 7.1150217, 7.1150217, 7.1150217, 7.1150217, 7.1150217, 7.1150217, 7.1150217, 7.1150217, 7.1150217, 7.1150217, 7.1150217, 7.1150217];[0.0036399001255631447, 0.018254500115290284, 0.03495380003005266, 0.052495399955660105, 0.0674125999212265, 0.0858273000922054, 0.10131800011731684, 0.11896470002830029, 0.1340014000888914, 0.1516384999267757, 0.16766320005990565, 0.18366519990377128, 0.198613699991256, 0.21757579990662634, 0.2348364000208676, 0.2524045000318438, 0.2682348000817001, 0.28581669996492565, 0.30016310000792146, 0.31909579993225634, 0.3351557001005858, 0.3522532000206411, 0.3683978000190109, 0.3854255999904126, 0.4017594999168068, 0.41900349990464747, 0.43425439996644855, 0.4530841000378132, 0.4693110000807792, 0.4845151000190526, 0.501767999958247, 0.5165536999702454, 0.5326666999608278, 0.551224899943918, 0.5672208000905812, 0.5848006999585778, 0.600305600091815, 0.6173485999461263, 0.6338221000041813, 0.6506423000246286, 0.6676272000186145, 0.6834535000380129, 0.7000311999581754, 0.7184826999437064, 0.7338137999176979, 0.7532178999390453, 0.7681003001052886, 0.7850291000213474, 0.802279399940744, 0.8188666000496596, 0.8344731999095529, 0.8507137999404222, 0.8668124000541866, 0.8863433001097292, 0.9009918000083417, 0.9181286001112312, 0.9346346999518573, 0.9505521999672055, 0.9678837000392377, 0.9848978999070823, 0.9996682999189943, 1.0182771999388933, 1.036363000050187, 1.049796599894762, 1.0679645999334753, 1.0844167999457568, 1.1009313999675214, 1.1179257000330836, 1.1345345999579877, 1.151582800084725, 1.166385699994862, 1.1866971999406815, 1.201119099976495, 1.2169775001239032, 1.232855699956417, 1.2521003000438213, 1.26671570003964, 1.2858371001202613]
testa;21;0;0;1;False;3000;True;;8;-7.137295647371632;drag;L;7.681956;-1.899229;-13.89;7.91;1.1833365999627858;1.1834482001140714;1684835956.7527504;1684835956.7667525;1684835957.5210063;1684835958.0226758;1684835961.0202994;1684835962.2041318;[0.0, 0.0, 0.0, 0.0, 0.0, 0.0, 0.0, 0.0, 0.0, 0.0, 0.0, 0.0, 0.0, 0.0, 0.0, 0.0, 0.0, 0.0, 0.0, 0.0, 0.0, 0.0, 0.0, 0.0, 2.5512033, 4.081925, 5.32918, 5.7260337, 5.896114, 5.9528074, 5.981154, 6.0095005, 6.037847, 6.037847, 6.0661945, 6.1228876, 6.292968, 6.5197415, 6.888248, 7.285102, 7.3984895, 7.5118756, 7.596916, 7.6252627, 7.6536093, 7.6536093, 7.681956, 7.710303, 7.710303, 7.710303, 7.710303, 7.710303, 7.710303, 7.710303, 7.710303, 7.681956, 7.681956, 7.681956, 7.681956, 7.681956, 7.681956, 7.681956, 7.681956, 7.681956, 7.681956, 7.681956, 7.681956, 7.681956, 7.681956, 7.681956, 7.681956];[0.0, 0.0, 0.0, 0.0, 0.0, 0.0, 0.0, 0.0, 0.0, 0.0, 0.0, 0.0, 0.0, 0.0, 0.0, 0.0, 0.0, 0.0, 0.0, 0.0, 0.0, 0.0, 0.0, 0.0, -0.79370767, -1.2472548, -1.5874153, -1.6441087, -1.6724553, -1.6724553, -1.6724553, -1.6724553, -1.6724553, -1.6724553, -1.6724553, -1.7008021, -1.7008021, -1.7008021, -1.7008021, -1.6441087, -1.6441087, -1.6441087, -1.6441087, -1.6441087, -1.6441087, -1.6441087, -1.6441087, -1.6441087, -1.6441087, -1.6441087, -1.6724553, -1.7008021, -1.7574955, -1.7858423, -1.8141888, -1.8425356, -1.8708823, -1.8708823, -1.899229, -1.899229, -1.899229, -1.899229, -1.899229, -1.899229, -1.899229, -1.899229, -1.899229, -1.899229, -1.899229, -1.899229, -1.899229];[0.0055883999448269606, 0.017334199976176023, 0.03635590011253953, 0.05191990011371672, 0.068771299906075, 0.08495869999751449, 0.10358499991707504, 0.11761979991570115, 0.1359472000040114, 0.15125259989872575, 0.16754549997858703, 0.1828179000876844, 0.19936960004270077, 0.2163734999485314, 0.235520200105384, 0.2515902000013739, 0.2697994001209736, 0.2848473999183625, 0.30206639994867146, 0.31835380010306835, 0.33488969993777573, 0.3514638999477029, 0.3688962000887841, 0.38559240009635687, 0.4031809000298381, 0.41727069998160005, 0.43458530004136264, 0.4516457000281662, 0.4699466999154538, 0.4835888999514282, 0.5023133000358939, 0.5189040000550449, 0.5349244999233633, 0.5514112000819296, 0.5685223999898881, 0.5851950999349356, 0.6031174000818282, 0.6172629001084715, 0.6354708999861032, 0.6515383999794722, 0.6701549000572413, 0.6838932998944074, 0.7016581001225859, 0.7167189000174403, 0.7362395999953151, 0.7494350001215935, 0.7679812998976558, 0.7839297000318766, 0.8024921000469476, 0.818063999991864, 0.8352638001088053, 0.8509943000972271, 0.8694074000231922, 0.8833991000428796, 0.903785000089556, 0.9188202999066561, 0.9346185000613332, 0.9516443000175059, 0.9680463001132011, 0.9847921000327915, 1.0028039999306202, 1.016909700119868, 1.0361538000870496, 1.0518944000359625, 1.0696362999733537, 1.0854557999409735, 1.1007286000531167, 1.116256299894303, 1.1345251000020653, 1.1517072999849916, 1.1700560001190752]
testa;22;0;0;1;False;1000;True;;8;-112.13867524128942;drag;L;-2.6929367;-6.633128;-112.1;7.16;1.4180093000177294;1.41812300006859;1684835962.8905888;1684835962.8996608;1684835963.6548111;1684835964.1562867;1684835965.1367848;1684835966.5551946;[0.0, 0.0, 0.0, 0.0, 0.0, 0.0, 0.0, 0.0, 0.0, 0.0, 0.0, 0.0, 0.0, 0.0, 0.0, 0.0, 0.0, 0.0, 0.0, 0.0, 0.0, 0.0, 0.0, 0.0, 0.0, 0.0, 0.0, 0.0, -0.3401604, -1.4740285, -1.9275757, -2.3244295, -2.6929367, -2.83467, -2.8913634, -2.9197102, -2.948057, -2.948057, -2.9764037, -3.0047503, -3.0047503, -3.1181371, -3.1748307, -3.2598708, -3.2882173, -3.3449106, -3.3449106, -3.3449106, -3.3449106, -3.3449106, -3.3449106, -3.3449106, -3.3449106, -3.3449106, -3.3449106, -3.3449106, -3.316564, -3.2882173, -3.2598708, -3.1748307, -3.0897903, -2.9764037, -2.9197102, -2.8630168, -2.83467, -2.7779768, -2.7212832, -2.7212832, -2.6929367, -2.6929367, -2.6929367, -2.6929367, -2.6929367, -2.6929367, -2.6929367, -2.6929367, -2.6929367, -2.6929367, -2.6929367, -2.6929367, -2.6929367, -2.6929367, -2.6929367, -2.6929367, -2.6929367];[0.0, 0.0, 0.0, 0.0, 0.0, 0.0, 0.0, 0.0, 0.0, 0.0, 0.0, 0.0, 0.0, 0.0, 0.0, 0.0, 0.0, 0.0, 0.0, 0.0, 0.0, 0.0, 0.0, 0.0, 0.0, 0.0, 0.0, 0.0, -0.6236274, -2.466163, -3.2882173, -4.025232, -5.0740595, -5.6409936, -5.8394203, -5.9528074, -6.0095005, -6.037847, -6.0661945, -6.094541, -6.151234, -6.4630475, -6.6898212, -6.888248, -6.944942, -7.029982, -7.029982, -7.0583286, -7.086675, -7.1717157, -7.1717157, -7.228409, -7.228409, -7.2567554, -7.2567554, -7.2567554, -7.2567554, -7.2567554, -7.2567554, -7.1717157, -7.086675, -7.0016356, -6.944942, -6.8599014, -6.831555, -6.774862, -6.7181687, -6.6898212, -6.6898212, -6.6614747, -6.6614747, -6.633128, -6.633128, -6.633128, -6.633128, -6.633128, -6.633128, -6.633128, -6.633128, -6.633128, -6.633128, -6.633128, -6.633128, -6.633128, -6.633128];[0.003686100011691451, 0.0184775001835078, 0.03535710019059479, 0.051615200005471706, 0.06794830015860498, 0.0853256001137197, 0.10120400018058717, 0.11940980004146695, 0.1339536001905799, 0.152195000089705, 0.167777500115335, 0.18545670015737414, 0.20089530013501644, 0.2192846001125872, 0.23392460006289184, 0.25175210018642247, 0.26793009997345507, 0.2842263001948595, 0.30116200004704297, 0.3190359000582248, 0.3340729000046849, 0.3516639000736177, 0.36823200015351176, 0.38597820000723004, 0.40153180016204715, 0.4182833000086248, 0.43483799998648465, 0.45137510006316006, 0.46717120008543134, 0.48690770007669926, 0.5009745999705046, 0.5182760001625866, 0.5349157000891864, 0.5512482000049204, 0.5684768999926746, 0.5840416999999434, 0.6002944000065327, 0.6197822000831366, 0.6340456001926214, 0.6516366000287235, 0.6666786000132561, 0.6845023001078516, 0.7015677001327276, 0.7184942001476884, 0.734502200037241, 0.7529529000166804, 0.767862900160253, 0.7848641001619399, 0.8006921000778675, 0.818522300105542, 0.8350912001915276, 0.8509329999797046, 0.8681544000282884, 0.8851505001075566, 0.9001005000900477, 0.9179681001696736, 0.9353718000929803, 0.9515937000978738, 0.9674109001643956, 0.9848103001713753, 1.0001886000391096, 1.0199306001886725, 1.033799699973315, 1.05196990002878, 1.0663495000917464, 1.0840986999683082, 1.1006356000434607, 1.11868830001913, 1.134697100147605, 1.1534291000571102, 1.1673201001249254, 1.187008700100705, 1.2006858000531793, 1.2178944000042975, 1.2341210001613945, 1.2508025001734495, 1.2661082001868635, 1.2851321999914944, 1.3011823000852019, 1.3184611999895424, 1.3348145000636578, 1.3517736000940204, 1.3675256001297385, 1.3848081000614911, 1.4018298999872059]
testa;23;0;0;1;False;3000;True;;8;-78.10893479537484;drag;L;2.3527763;-6.888248;-71.14;7.28;1.481542200082913;1.4816809000913054;1684835967.4092946;1684835967.4162638;1684835968.1701446;1684835968.6708043;1684835971.6699617;1684835973.1519346;[0.0, 0.0, 0.0, 0.0, 0.0, 0.0, 0.0, 0.0, 0.0, 0.0, 0.0, 0.0, 0.0, 0.0, 0.0, 0.0, 0.0, 0.0, 0.0, 0.0, 0.0, 0.0, 0.0, 0.0, 0.0, 0.0, 0.0, 0.0, 0.0, 0.0, 0.19842692, 0.6236274, 1.1055214, 1.3039483, 1.4456817, 1.5307219, 1.6157619, 1.7008021, 1.7574955, 1.8141888, 1.9275757, 1.9559225, 2.012616, 2.1260026, 2.2393894, 2.3244295, 2.4094696, 2.4378164, 2.466163, 2.4945097, 2.4945097, 2.4945097, 2.4945097, 2.4945097, 2.4945097, 2.4945097, 2.4945097, 2.4945097, 2.4945097, 2.4945097, 2.466163, 2.466163, 2.466163, 2.466163, 2.466163, 2.466163, 2.4378164, 2.4094696, 2.4094696, 2.4094696, 2.4094696, 2.381123, 2.381123, 2.381123, 2.381123, 2.381123, 2.381123, 2.381123, 2.381123, 2.3527763, 2.3527763, 2.3527763, 2.3527763, 2.3527763, 2.3527763, 2.3527763, 2.3527763, 2.3527763, 2.3527763];[0.0, 0.0, 0.0, 0.0, 0.0, 0.0, 0.0, 0.0, 0.0, 0.0, 0.0, 0.0, 0.0, 0.0, 0.0, 0.0, 0.0, 0.0, 0.0, 0.0, 0.0, 0.0, 0.0, 0.0, 0.0, 0.0, 0.0, 0.0, 0.0, 0.0, -0.65197414, -1.9275757, -3.0047503, -3.4299507, -3.7417645, -3.911845, -4.110272, -4.337045, -4.4504323, -4.5921655, -4.733899, -4.9039793, -5.045713, -5.32918, -5.527607, -5.697687, -5.896114, -5.9528074, -6.037847, -6.0661945, -6.1228876, -6.2079277, -6.321315, -6.4630475, -6.633128, -6.7181687, -6.8032084, -6.831555, -6.9165955, -6.9165955, -6.9732885, -6.9732885, -7.0016356, -7.0016356, -7.0016356, -7.0016356, -7.0016356, -7.0016356, -7.0016356, -7.0016356, -7.0016356, -6.9732885, -6.944942, -6.944942, -6.9165955, -6.9165955, -6.888248, -6.888248, -6.888248, -6.888248, -6.888248, -6.888248, -6.888248, -6.888248, -6.888248, -6.888248, -6.888248, -6.888248, -6.888248];[0.0037082000635564327, 0.01652490021660924, 0.03408250003121793, 0.05040880013257265, 0.06680640019476414, 0.08401049999520183, 0.10147080011665821, 0.11696340003982186, 0.13534270017407835, 0.15001600002869964, 0.1668510001618415, 0.18522700015455484, 0.19982790015637875, 0.2174677001312375, 0.2366033000871539, 0.2500603999942541, 0.26644790009595454, 0.2833758001215756, 0.30096740019507706, 0.3181412999983877, 0.33628050005063415, 0.35102100018411875, 0.36851110006682575, 0.38391330000013113, 0.402855500113219, 0.4172149000223726, 0.43427020008675754, 0.450797000201419, 0.46697970014065504, 0.4852424000855535, 0.5007528001442552, 0.5183815001510084, 0.5361597000155598, 0.5491955000907183, 0.5693024999927729, 0.584232300054282, 0.6007376001216471, 0.6198303001001477, 0.63478590012528, 0.6507676001638174, 0.6701137002091855, 0.6826942001935095, 0.701763299992308, 0.7187257001642138, 0.7340844999998808, 0.7522795000113547, 0.7682539999950677, 0.7839942001737654, 0.8020431001204997, 0.8172865000087768, 0.8352214000187814, 0.851525500183925, 0.8680006000213325, 0.8856925000436604, 0.9012601000722498, 0.9169908000621945, 0.9360268001910299, 0.9509111000224948, 0.971816300181672, 0.9842012000735849, 1.0003115001600236, 1.0177723001688719, 1.0338105000555515, 1.0494764000177383, 1.0684262001886964, 1.0835430000443012, 1.1016891000326723, 1.1186128000263125, 1.1357211000286043, 1.1516929001081735, 1.1683285001199692, 1.1841820001136512, 1.2027769000269473, 1.2174610001966357, 1.234625100158155, 1.2496163002215326, 1.2679276000708342, 1.2844752999953926, 1.3016227001789957, 1.3175552000757307, 1.3356689000502229, 1.3512176000513136, 1.368597700027749, 1.3842341999989003, 1.4015424000099301, 1.4191365002188832, 1.4347232000436634, 1.449467500206083, 1.4679746001493186]
testa;24;0;0;1;False;3000;True;;8;171.986734320196;drag;L;-7.313449;1.2189082;170.54;7.41;1.2140475998166949;1.2141672999132425;1684835973.9265902;1684835973.932518;1684835974.6865427;1684835975.187733;1684835978.1872206;1684835979.40131;[0.0, 0.0, 0.0, 0.0, 0.0, 0.0, 0.0, 0.0, 0.0, 0.0, 0.0, 0.0, 0.0, 0.0, 0.0, 0.0, 0.0, 0.0, 0.0, 0.0, 0.0, 0.0, 0.0, 0.0, 0.0, 0.0, -1.0488279, -3.0047503, -4.960673, -5.981154, -6.6614747, -6.944942, -7.0583286, -7.1150217, -7.143369, -7.143369, -7.1717157, -7.1717157, -7.1717157, -7.1717157, -7.1717157, -7.2000623, -7.228409, -7.228409, -7.228409, -7.228409, -7.228409, -7.228409, -7.228409, -7.228409, -7.2567554, -7.285102, -7.285102, -7.285102, -7.285102, -7.285102, -7.285102, -7.285102, -7.285102, -7.285102, -7.285102, -7.285102, -7.313449, -7.313449, -7.313449, -7.313449, -7.313449, -7.313449, -7.313449, -7.313449, -7.313449, -7.313449, -7.313449];[0.0, 0.0, 0.0, 0.0, 0.0, 0.0, 0.0, 0.0, 0.0, 0.0, 0.0, 0.0, 0.0, 0.0, 0.0, 0.0, 0.0, 0.0, 0.0, 0.0, 0.0, 0.0, 0.0, 0.0, 0.0, 0.0, -0.0566934, -0.1700802, 0.0, 0.19842692, 0.3118137, 0.36850712, 0.36850712, 0.36850712, 0.36850712, 0.36850712, 0.36850712, 0.36850712, 0.36850712, 0.36850712, 0.36850712, 0.36850712, 0.36850712, 0.39685383, 0.39685383, 0.39685383, 0.42520052, 0.42520052, 0.48189393, 0.53858733, 0.73701423, 0.85040104, 0.9921345, 1.0488279, 1.0771747, 1.1338681, 1.1622148, 1.1622148, 1.1905615, 1.1905615, 1.1905615, 1.1905615, 1.1905615, 1.2189082, 1.2189082, 1.2189082, 1.2189082, 1.2189082, 1.2189082, 1.2189082, 1.2189082, 1.2189082, 1.2189082];[0.004089899826794863, 0.01787399989552796, 0.03524099988862872, 0.05063849990256131, 0.06919809989631176, 0.08340879995375872, 0.10117129981517792, 0.11822109995409846, 0.1348592999856919, 0.1511132000014186, 0.167779800016433, 0.18367349985055625, 0.20102469995617867, 0.2174980000127107, 0.23531039990484715, 0.2512273997999728, 0.2685352999251336, 0.2842244999483228, 0.30184809979982674, 0.3167584999464452, 0.33526889979839325, 0.3498938998673111, 0.367424099938944, 0.3831151998601854, 0.40144219994544983, 0.416830699890852, 0.43438759981654584, 0.4503273998852819, 0.4681204999797046, 0.4836676998529583, 0.5020049999002367, 0.5169257000088692, 0.5336909999605268, 0.5519730998203158, 0.5684767998754978, 0.5843263999558985, 0.6021095998585224, 0.6163450998719782, 0.634451000019908, 0.6499815999995917, 0.6690779000055045, 0.6826241000089794, 0.7015279999468476, 0.7168250998947769, 0.7335076997987926, 0.7495408998802304, 0.7680892997886986, 0.7830883997958153, 0.7998259000014514, 0.8179311999119818, 0.8351670999545604, 0.8496811999939382, 0.867579499958083, 0.884119899943471, 0.90198739990592, 0.9161476998124272, 0.9349389998242259, 0.9508169998880476, 0.9679002999328077, 0.9832780999131501, 1.0014319999609143, 1.0151799998711795, 1.034377799835056, 1.0493651998694986, 1.0680849999189377, 1.084200199926272, 1.1007401999086142, 1.1188027998432517, 1.1343888998962939, 1.1502441000193357, 1.1686897999607027, 1.1828754998277873, 1.199949499918148]
testa;25;0;0;1;False;1000;False;;8;-135.3039064578846;drag;L;nan;nan;nan;nan;0.0017109999898821115;0.0018536001443862915;1684835980.1367645;1684835980.148796;1684835980.903577;1684835981.4047434;1684835982.3714263;1684835982.3725805;[];[];[]
testa;25;0;0;1;False;1000;True;;8;-61.56158944989743;drag;L;3.7417645;-6.774862;-61.09;7.74;1.132139400113374;1.132235499797389;1684835982.943125;1684835982.947857;1684835983.703626;1684835984.2056947;1684835985.186629;1684835986.3186471;[0.0, 0.0, 0.0, 0.0, 0.0, 0.0, 0.0, 0.0, 0.0, 0.0, 0.0, 0.0, 0.0, 0.0, 0.0, 0.0, 0.0, 0.0, 0.0, 0.0, 0.0, 0.0, 0.0, 0.0, 0.0, 0.0, 0.0, 0.0, 0.0, 0.0, 0.9070944, 1.8425356, 2.6362433, 3.2315238, 3.3732576, 3.4582977, 3.4582977, 3.4866443, 3.4866443, 3.4866443, 3.4866443, 3.4582977, 3.4582977, 3.4582977, 3.4866443, 3.6000311, 3.6567245, 3.713418, 3.713418, 3.7417645, 3.770111, 3.798458, 3.798458, 3.798458, 3.798458, 3.770111, 3.770111, 3.7417645, 3.7417645, 3.7417645, 3.7417645, 3.7417645, 3.7417645, 3.7417645, 3.7417645, 3.7417645, 3.7417645, 3.7417645];[0.0, 0.0, 0.0, 0.0, 0.0, 0.0, 0.0, 0.0, 0.0, 0.0, 0.0, 0.0, 0.0, 0.0, 0.0, 0.0, 0.0, 0.0, 0.0, 0.0, 0.0, 0.0, 0.0, 0.0, 0.0, 0.0, 0.0, 0.0, 0.0, 0.0, -1.7008021, -3.0897903, -4.1953115, -4.932326, -5.215793, -5.3575263, -5.41422, -5.4992604, -5.612647, -5.66934, -5.75438, -5.811074, -5.896114, -6.0661945, -6.2362742, -6.434701, -6.548088, -6.6047816, -6.633128, -6.6898212, -6.7181687, -6.7181687, -6.7465153, -6.774862, -6.774862, -6.774862, -6.774862, -6.774862, -6.774862, -6.774862, -6.774862, -6.774862, -6.774862, -6.774862, -6.774862, -6.774862, -6.774862, -6.774862];[0.003603499848395586, 0.016886699944734573, 0.033811899833381176, 0.052964599803090096, 0.06756229978054762, 0.08660029992461205, 0.10121529991738498, 0.11901719984598458, 0.13429719978012145, 0.15243989997543395, 0.16771129984408617, 0.18657969986088574, 0.20034979982301593, 0.21987339993938804, 0.2341729998588562, 0.25201459997333586, 0.26836119988001883, 0.2854554997757077, 0.30046249995939434, 0.31918489979580045, 0.3347524998243898, 0.3530079999472946, 0.3675655999686569, 0.385713699972257, 0.4017726997844875, 0.4187269997783005, 0.43487219978123903, 0.4512695998419076, 0.46711129997856915, 0.48522159992717206, 0.5014435998164117, 0.5189035998191684, 0.5352922999300063, 0.5516260999720544, 0.5674968999810517, 0.585863099899143, 0.5998487998731434, 0.6181200998835266, 0.634849599795416, 0.6522872999776155, 0.6693518999963999, 0.6844366998411715, 0.7005164998117834, 0.7200304998550564, 0.7344085997901857, 0.7543563998769969, 0.76784129999578, 0.783799999859184, 0.8010401998180896, 0.8181515999604017, 0.8339802999980748, 0.8526806998997927, 0.8674510999117047, 0.8856227998621762, 0.9012432999443263, 0.9202924999408424, 0.9357989998534322, 0.9518443997949362, 0.9677361999638379, 0.985314899822697, 1.0009773999918252, 1.0197318999562413, 1.034879099810496, 1.0535031999461353, 1.067977099912241, 1.0848681998904794, 1.1004156998824328, 1.1183675997890532]
testa;26;0;0;1;False;3000;True;;8;-57.83140420827038;drag;L;4.422086;-6.6614747;-56.42;8.0;1.733557099942118;1.7336764000356197;1684835987.1824367;1684835987.1976647;1684835987.9539945;1684835988.454656;1684835991.4537137;1684835993.1866426;[0.0, 0.0, 0.0, 0.0, 0.0, 0.0, 0.0, 0.0, 0.0, 0.0, 0.0, 0.0, 0.0, 0.0, 0.0, 0.0, 0.0, 0.0, 0.0, 0.0, 0.0, 0.0, 0.0, 0.0, 0.0, 0.0, 0.0, 0.8220543, 1.5874153, 1.9559225, 2.2393894, 2.3244295, 2.4094696, 2.4378164, 2.4945097, 2.5512033, 2.6078966, 2.6362433, 2.66459, 2.6929367, 2.7779768, 3.0330973, 3.2315238, 3.4016042, 3.4866443, 3.514991, 3.5716846, 3.5716846, 3.6000311, 3.6000311, 3.6567245, 3.6850712, 3.713418, 3.713418, 3.7417645, 3.770111, 3.8551514, 3.9401915, 4.025232, 4.081925, 4.110272, 4.166965, 4.166965, 4.1953115, 4.1953115, 4.1953115, 4.1953115, 4.1953115, 4.2236586, 4.2236586, 4.2236586, 4.2236586, 4.2236586, 4.2236586, 4.252005, 4.2803516, 4.2803516, 4.3086987, 4.3086987, 4.337045, 4.337045, 4.337045, 4.365392, 4.3937387, 4.3937387, 4.3937387, 4.3937387, 4.3937387, 4.422086, 4.422086, 4.422086, 4.422086, 4.422086, 4.422086, 4.422086, 4.422086, 4.422086, 4.422086, 4.422086, 4.422086, 4.422086, 4.422086, 4.422086, 4.422086];[0.0, 0.0, 0.0, 0.0, 0.0, 0.0, 0.0, 0.0, 0.0, 0.0, 0.0, 0.0, 0.0, 0.0, 0.0, 0.0, 0.0, 0.0, 0.0, 0.0, 0.0, 0.0, 0.0, 0.0, 0.0, 0.0, 0.0, -1.417335, -2.4945097, -3.0047503, -3.4299507, -3.5433376, -3.6850712, -3.770111, -3.8268046, -3.911845, -3.968538, -4.025232, -4.110272, -4.1953115, -4.337045, -4.762246, -5.1024065, -5.32918, -5.4709134, -5.527607, -5.5843005, -5.612647, -5.6409936, -5.66934, -5.7260337, -5.75438, -5.75438, -5.75438, -5.811074, -5.8394203, -5.9528074, -6.0661945, -6.1795807, -6.264621, -6.292968, -6.321315, -6.3496614, -6.378008, -6.378008, -6.4063544, -6.4063544, -6.4063544, -6.4063544, -6.4063544, -6.4063544, -6.4063544, -6.4063544, -6.434701, -6.434701, -6.4630475, -6.4630475, -6.491395, -6.5197415, -6.5197415, -6.548088, -6.548088, -6.5764346, -6.5764346, -6.6047816, -6.633128, -6.633128, -6.6614747, -6.6614747, -6.6614747, -6.6614747, -6.6614747, -6.6614747, -6.6614747, -6.6614747, -6.6614747, -6.6614747, -6.6614747, -6.6614747, -6.6614747, -6.6614747, -6.6614747, -6.6614747, -6.6614747];[0.004039500141516328, 0.015377100091427565, 0.033981700194999576, 0.050114399986341596, 0.06823330000042915, 0.08372059999965131, 0.10227850009687245, 0.11742720007896423, 0.13444340019486845, 0.15095230005681515, 0.16783050005324185, 0.18430070020258427, 0.2004834001418203, 0.2169313000049442, 0.23443990014493465, 0.2507681001443416, 0.2679829001426697, 0.28405950008891523, 0.3020927000325173, 0.3171926001086831, 0.3335620001889765, 0.351032700156793, 0.3691863000858575, 0.3833341000135988, 0.40149710001423955, 0.41664479998871684, 0.4343389000277966, 0.4503636001609266, 0.4672240000218153, 0.4826286002062261, 0.5023507000878453, 0.5173716000281274, 0.5364608000963926, 0.5506198999937624, 0.5675162000115961, 0.5853097999934107, 0.6004711000714451, 0.6171236999798566, 0.6354506001807749, 0.649283800041303, 0.6685448000207543, 0.6854409000370651, 0.7014160000253469, 0.7165051000192761, 0.7333747001830488, 0.7501680001150817, 0.7681164001114666, 0.7832657999824733, 0.8008886000607163, 0.8157310001552105, 0.8328252001665533, 0.8519844000693411, 0.8672117001842707, 0.8833340001292527, 0.9019277000334114, 0.9166710001882166, 0.9366665000561625, 0.9507526000961661, 0.9679082999937236, 0.9853439000435174, 1.0010282001458108, 1.0164993000216782, 1.0357766000088304, 1.0496654000598937, 1.0681038000620902, 1.0826149000786245, 1.10157630010508, 1.1176942000165582, 1.1341382001992315, 1.1491671002004296, 1.166193500161171, 1.183152300072834, 1.2024641002062708, 1.2175458001438528, 1.2342333002015948, 1.2528419999871403, 1.2674362000543624, 1.283219899982214, 1.3009074002038687, 1.3166006000246853, 1.3354590001981705, 1.350255300058052, 1.3685238000471145, 1.3828973001800478, 1.3995298000518233, 1.4171402000356466, 1.4341612001881003, 1.45022360002622, 1.4683972999919206, 1.4830585999879986, 1.5021605000365525, 1.5181270001921803, 1.5343051000963897, 1.5502782000694424, 1.5678038999903947, 1.5835162000730634, 1.6014502001926303, 1.6173135000281036, 1.6350432999897748, 1.6513438001275063, 1.6670651000458747, 1.6843442001845688, 1.7006706001702696, 1.7164322000462562]
